pid,day,session,trial,condition,cond_name,match,response,rt,acc
1,1,1,4,4,none,1,1,771.9999999999964,1
1,1,1,5,4,none,1,1,828.9999999999964,1
1,1,1,6,4,none,1,2,811,0
1,1,1,7,4,none,2,2,1041,1
1,1,1,8,4,none,2,2,1419,1
1,1,1,9,4,none,1,1,620,1
1,1,1,10,4,none,2,2,725,1
1,1,1,11,3,both,1,1,737,1
1,1,1,12,3,both,2,2,1525,1
1,1,1,13,3,both,2,2,1071,1
1,1,1,14,3,both,1,1,1386.9999999999927,1
1,1,1,15,3,both,2,1,1308,0
1,1,1,16,3,both,1,1,798,1
1,1,1,17,3,both,2,2,822,1
1,1,1,18,3,both,1,1,709.9999999999927,1
1,1,1,19,3,both,2,2,1124,1
1,1,1,20,3,both,1,1,1210,1
1,1,1,21,4,none,1,1,881,1
1,1,1,22,4,none,2,2,1067,1
1,1,1,23,4,none,1,2,1096,0
1,1,1,24,4,none,1,1,1123,1
1,1,1,25,4,none,2,2,1461,1
1,1,1,26,4,none,2,2,892,1
1,1,1,27,4,none,2,2,991,1
1,1,1,28,4,none,1,1,1928,1
1,1,1,29,4,none,2,2,803.9999999999854,1
1,1,1,30,4,none,1,1,1324,1
1,1,1,31,3,both,2,2,916,1
1,1,1,32,3,both,2,2,749,1
1,1,1,33,3,both,1,1,1185,1
1,1,1,34,3,both,2,1,598,0
1,1,1,35,3,both,1,1,676,1
1,1,1,36,3,both,2,2,916,1
1,1,1,37,3,both,1,1,556,1
1,1,1,38,3,both,1,1,684,1
1,1,1,39,3,both,1,2,1186,0
1,1,1,40,3,both,2,2,950,1
1,1,1,41,1,name,1,2,1453,0
1,1,1,42,1,name,1,1,1285,1
1,1,1,43,1,name,2,2,1192,1
1,1,1,44,1,name,2,2,792,1
1,1,1,45,1,name,2,2,813,1
1,1,1,46,1,name,1,1,1128,1
1,1,1,47,1,name,1,1,792,1
1,1,1,48,1,name,2,2,797,1
1,1,1,49,1,name,1,1,571,1
1,1,1,50,1,name,2,2,818,1
1,1,1,51,2,tie,1,2,830.9999999999709,0
1,1,1,52,2,tie,2,2,790,1
1,1,1,53,2,tie,2,2,739,1
1,1,1,54,2,tie,2,1,555,0
1,1,1,55,2,tie,1,1,714,1
1,1,1,56,2,tie,2,2,775,1
1,1,1,57,2,tie,2,2,600,1
1,1,1,58,2,tie,1,1,1074.999999999971,1
1,1,1,59,2,tie,1,1,732,1
1,1,1,60,2,tie,1,1,615,1
1,1,1,61,1,name,1,1,1316.999999999971,1
1,1,1,62,1,name,2,2,825,1
1,1,1,63,1,name,2,2,924.9999999999709,1
1,1,1,64,1,name,1,1,800,1
1,1,1,65,1,name,1,2,1716,0
1,1,1,66,1,name,2,1,1251,0
1,1,1,67,1,name,1,2,1479,0
1,1,1,68,1,name,2,2,935,1
1,1,1,69,1,name,1,1,1412,1
1,1,1,70,1,name,2,2,724,1
1,1,1,71,2,tie,2,2,1049,1
1,1,1,72,2,tie,1,1,992,1
1,1,1,73,2,tie,1,1,776,1
1,1,1,74,2,tie,2,2,907,1
1,1,1,75,2,tie,2,2,1321,1
1,1,1,76,2,tie,2,2,667,1
1,1,1,77,2,tie,1,1,707,1
1,1,1,78,2,tie,1,1,1041,1
1,1,1,79,2,tie,2,2,934.9999999999709,1
1,1,1,80,2,tie,1,2,1136,0
1,2,1,2,2,tie,2,2,1919,1
1,2,1,3,2,tie,2,2,1757,1
1,2,1,4,2,tie,1,1,1755,1
1,2,1,5,2,tie,1,1,760.9999999999982,1
1,2,1,6,2,tie,1,1,798,1
1,2,1,7,2,tie,1,1,1378.9999999999964,1
1,2,1,8,2,tie,2,2,1021,1
1,2,1,9,2,tie,2,2,1064,1
1,2,1,10,2,tie,1,2,1490,0
1,2,1,11,4,none,2,1,1863,0
1,2,1,12,4,none,2,2,825,1
1,2,1,13,4,none,1,1,1534,1
1,2,1,14,4,none,1,1,558.9999999999927,1
1,2,1,15,4,none,1,2,1800,0
1,2,1,16,4,none,1,1,1423,1
1,2,1,17,4,none,2,2,1052,1
1,2,1,18,4,none,1,2,1227,0
1,2,1,19,4,none,2,2,868,1
1,2,1,20,4,none,2,2,971,1
1,2,1,21,3,both,2,2,998,1
1,2,1,22,3,both,1,1,1863.9999999999927,1
1,2,1,23,3,both,1,1,621,1
1,2,1,24,3,both,2,1,1878,0
1,2,1,25,3,both,1,1,1822,1
1,2,1,26,3,both,2,2,1841,1
1,2,1,27,3,both,1,1,1408,1
1,2,1,28,3,both,2,2,979,1
1,2,1,29,3,both,2,2,1316,1
1,2,1,30,3,both,1,1,904,1
1,2,1,31,1,name,2,2,1434.9999999999854,1
1,2,1,32,1,name,1,1,1289.9999999999854,1
1,2,1,33,1,name,2,2,705,1
1,2,1,34,1,name,1,2,1854,0
1,2,1,35,1,name,1,2,1242,0
1,2,1,36,1,name,2,2,1176,1
1,2,1,37,1,name,1,1,963,1
1,2,1,38,1,name,1,1,1183,1
1,2,1,39,1,name,2,2,1486,1
1,2,1,40,1,name,2,2,1052,1
1,2,1,41,3,both,1,1,1022.9999999999854,1
1,2,1,42,3,both,1,2,840,0
1,2,1,43,3,both,2,2,710,1
1,2,1,44,3,both,2,2,782,1
1,2,1,45,3,both,2,2,726,1
1,2,1,46,3,both,1,2,797.9999999999854,0
1,2,1,47,3,both,1,1,1525.9999999999854,1
1,2,1,48,3,both,1,1,913,1
1,2,1,49,3,both,2,2,1016,1
1,2,1,50,3,both,2,2,747,1
1,2,1,51,4,none,1,1,955,1
1,2,1,53,4,none,1,1,1485,1
1,2,1,54,4,none,1,1,561.9999999999709,1
1,2,1,55,4,none,2,2,980,1
1,2,1,56,4,none,1,1,849,1
1,2,1,57,4,none,2,1,1165.999999999971,0
1,2,1,58,4,none,2,2,1268,1
1,2,1,59,4,none,2,2,1167,1
1,2,1,60,4,none,2,1,1466,0
1,2,1,61,1,name,1,2,2028,0
1,2,1,62,1,name,1,1,1150,1
1,2,1,63,1,name,1,1,1193,1
1,2,1,64,1,name,2,2,1078.999999999971,1
1,2,1,65,1,name,1,1,804,1
1,2,1,66,1,name,2,2,815.9999999999709,1
1,2,1,67,1,name,2,2,874,1
1,2,1,68,1,name,1,1,1107,1
1,2,1,69,1,name,2,2,757,1
1,2,1,70,1,name,2,2,1017,1
1,2,1,71,2,tie,1,1,1065,1
1,2,1,72,2,tie,2,2,1210,1
1,2,1,73,2,tie,2,2,1173.999999999971,1
1,2,1,74,2,tie,2,2,1178,1
1,2,1,75,2,tie,1,2,1763,0
1,2,1,76,2,tie,1,2,1595,0
1,2,1,77,2,tie,2,2,1004.9999999999709,1
1,2,1,78,2,tie,2,1,1468,0
1,2,1,79,2,tie,1,2,760,0
1,2,1,80,2,tie,1,1,1325,1
1,2,2,1,3,both,2,2,1668,1
1,2,2,2,3,both,2,2,686,1
1,2,2,3,3,both,1,1,644,1
1,2,2,4,3,both,2,2,719,1
1,2,2,5,3,both,1,1,945,1
1,2,2,6,3,both,1,1,1275,1
1,2,2,7,3,both,1,1,765,1
1,2,2,8,3,both,1,1,775,1
1,2,2,9,3,both,2,2,896,1
1,2,2,10,3,both,2,2,1304.9999999999964,1
1,2,2,11,4,none,2,1,1373,0
1,2,2,12,4,none,2,2,751,1
1,2,2,13,4,none,1,1,1050,1
1,2,2,14,4,none,1,2,881,0
1,2,2,15,4,none,2,2,777,1
1,2,2,16,4,none,1,1,916,1
1,2,2,17,4,none,1,1,856,1
1,2,2,18,4,none,2,1,1509,0
1,2,2,19,4,none,1,1,646,1
1,2,2,20,4,none,2,2,883,1
1,2,2,21,1,name,1,1,1405.9999999999927,1
1,2,2,22,1,name,2,2,727,1
1,2,2,23,1,name,1,1,1177,1
1,2,2,24,1,name,2,2,818,1
1,2,2,25,1,name,2,2,1465,1
1,2,2,26,1,name,1,1,1022,1
1,2,2,27,1,name,2,2,753,1
1,2,2,28,1,name,1,1,867,1
1,2,2,29,1,name,2,2,783,1
1,2,2,30,1,name,1,2,896,0
1,2,2,31,3,both,1,1,830,1
1,2,2,32,3,both,1,1,875,1
1,2,2,33,3,both,1,1,602,1
1,2,2,34,3,both,2,2,876,1
1,2,2,35,3,both,1,2,1007.9999999999854,0
1,2,2,36,3,both,2,1,743,0
1,2,2,37,3,both,2,2,1251,1
1,2,2,38,3,both,2,2,920.9999999999854,1
1,2,2,39,3,both,1,1,523.9999999999854,1
1,2,2,40,3,both,2,2,827,1
1,2,2,41,2,tie,2,2,1143,1
1,2,2,42,2,tie,1,2,1824,0
1,2,2,43,2,tie,1,1,792,1
1,2,2,44,2,tie,1,1,1235,1
1,2,2,45,2,tie,2,2,1011,1
1,2,2,46,2,tie,2,2,938,1
1,2,2,47,2,tie,1,1,655,1
1,2,2,48,2,tie,1,2,1033.9999999999854,0
1,2,2,49,2,tie,2,2,1239,1
1,2,2,50,2,tie,2,2,883,1
1,2,2,51,4,none,2,2,712,1
1,2,2,52,4,none,1,1,1123.999999999971,1
1,2,2,53,4,none,2,2,1312,1
1,2,2,54,4,none,2,2,963,1
1,2,2,55,4,none,1,1,1514,1
1,2,2,56,4,none,1,1,1156,1
1,2,2,57,4,none,1,1,827,1
1,2,2,58,4,none,1,1,669,1
1,2,2,59,4,none,2,2,820,1
1,2,2,60,4,none,2,2,1046,1
1,2,2,61,1,name,1,1,1084,1
1,2,2,62,1,name,2,2,882,1
1,2,2,63,1,name,1,1,1104,1
1,2,2,64,1,name,1,1,1178,1
1,2,2,65,1,name,2,1,1334,0
1,2,2,66,1,name,2,2,1549.999999999971,1
1,2,2,67,1,name,2,2,1356,1
1,2,2,68,1,name,1,1,655,1
1,2,2,69,1,name,1,1,958,1
1,2,2,70,1,name,2,2,760,1
1,2,2,71,2,tie,1,2,1170,0
1,2,2,72,2,tie,2,2,847,1
1,2,2,73,2,tie,1,1,905,1
1,2,2,74,2,tie,2,2,995,1
1,2,2,75,2,tie,2,2,618.9999999999709,1
1,2,2,76,2,tie,1,2,625,0
1,2,2,77,2,tie,1,1,1279.999999999971,1
1,2,2,78,2,tie,2,2,718,1
1,2,2,79,2,tie,1,1,759,1
1,2,2,80,2,tie,2,2,911,1
1,3,1,1,3,both,1,1,1456,1
1,3,1,2,3,both,1,1,821,1
1,3,1,3,3,both,2,2,1280.999999999999,1
1,3,1,4,3,both,1,2,1426,0
1,3,1,5,3,both,1,2,2113,0
1,3,1,6,3,both,2,2,1334,1
1,3,1,7,3,both,1,1,1413,1
1,3,1,8,3,both,2,2,816.9999999999964,1
1,3,1,9,3,both,2,2,888,1
1,3,1,10,3,both,2,2,985,1
1,3,1,11,1,name,2,2,1108,1
1,3,1,12,1,name,1,2,1823,0
1,3,1,13,1,name,2,2,1621,1
1,3,1,14,1,name,2,2,1165,1
1,3,1,15,1,name,2,2,924,1
1,3,1,16,1,name,1,1,947,1
1,3,1,17,1,name,1,1,1270,1
1,3,1,18,1,name,2,2,1105.9999999999927,1
1,3,1,19,1,name,1,1,1058,1
1,3,1,20,1,name,1,1,1082,1
1,3,1,21,2,tie,1,1,936.9999999999927,1
1,3,1,22,2,tie,2,2,986,1
1,3,1,23,2,tie,1,1,1125,1
1,3,1,24,2,tie,2,2,1441,1
1,3,1,25,2,tie,2,2,1715,1
1,3,1,26,2,tie,1,1,1798,1
1,3,1,27,2,tie,1,1,1668,1
1,3,1,28,2,tie,2,2,1129.9999999999854,1
1,3,1,29,2,tie,2,2,1464,1
1,3,1,30,2,tie,1,1,1146,1
1,3,1,31,4,none,1,1,1220,1
1,3,1,32,4,none,2,2,1178,1
1,3,1,33,4,none,2,1,1132,0
1,3,1,34,4,none,2,2,1329,1
1,3,1,35,4,none,2,2,1977,1
1,3,1,36,4,none,1,1,979,1
1,3,1,37,4,none,1,1,916,1
1,3,1,38,4,none,1,1,1112,1
1,3,1,39,4,none,2,1,1431,0
1,3,1,40,4,none,1,1,875,1
1,3,1,41,1,name,2,2,1956.9999999999854,1
1,3,1,42,1,name,2,2,1502,1
1,3,1,43,1,name,2,2,1191,1
1,3,1,44,1,name,2,2,1099.9999999999854,1
1,3,1,45,1,name,1,2,1333,0
1,3,1,46,1,name,1,1,1998,1
1,3,1,47,1,name,1,2,1161,0
1,3,1,48,1,name,1,1,1237,1
1,3,1,49,1,name,1,1,790,1
1,3,1,50,1,name,2,2,891,1
1,3,1,51,4,none,1,1,789,1
1,3,1,52,4,none,2,2,1074,1
1,3,1,53,4,none,2,1,1297,0
1,3,1,54,4,none,2,1,1573,0
1,3,1,55,4,none,2,1,1162,0
1,3,1,56,4,none,1,1,819,1
1,3,1,57,4,none,2,2,1356,1
1,3,1,58,4,none,1,1,716,1
1,3,1,59,4,none,1,1,960.9999999999709,1
1,3,1,60,4,none,1,1,755,1
1,3,1,61,2,tie,2,2,1516,1
1,3,1,62,2,tie,1,1,1188,1
1,3,1,63,2,tie,1,1,1760,1
1,3,1,64,2,tie,1,1,1380,1
1,3,1,65,2,tie,2,2,823,1
1,3,1,66,2,tie,2,2,1098,1
1,3,1,67,2,tie,1,1,790,1
1,3,1,68,2,tie,2,2,1163,1
1,3,1,69,2,tie,1,2,1660,0
1,3,1,70,2,tie,2,2,1160,1
1,3,1,71,3,both,2,2,1472,1
1,3,1,72,3,both,1,1,852,1
1,3,1,73,3,both,1,1,1388,1
1,3,1,74,3,both,1,1,968,1
1,3,1,75,3,both,2,1,889,0
1,3,1,76,3,both,1,1,1067,1
1,3,1,77,3,both,1,1,1106.999999999971,1
1,3,1,78,3,both,2,2,1832,1
1,3,1,79,3,both,2,2,1313,1
1,3,1,80,3,both,2,1,1409,0
1,3,2,1,2,tie,2,2,1502,1
1,3,2,2,2,tie,2,2,2143,1
1,3,2,3,2,tie,1,2,1721,0
1,3,2,4,2,tie,1,2,1228,0
1,3,2,5,2,tie,2,2,2082,1
1,3,2,6,2,tie,1,2,1758,0
1,3,2,7,2,tie,2,2,1738,1
1,3,2,8,2,tie,1,1,1819,1
1,3,2,9,2,tie,1,1,1145.9999999999964,1
1,3,2,10,2,tie,2,2,787,1
1,3,2,11,4,none,2,2,1407,1
1,3,2,12,4,none,1,2,1507,0
1,3,2,13,4,none,2,2,1562,1
1,3,2,14,4,none,1,1,1018,1
1,3,2,15,4,none,2,2,1177,1
1,3,2,16,4,none,1,2,1383.9999999999927,0
1,3,2,17,4,none,2,2,975,1
1,3,2,18,4,none,1,1,1047,1
1,3,2,19,4,none,2,2,740,1
1,3,2,20,4,none,1,1,881,1
1,3,2,21,1,name,1,2,1563,0
1,3,2,22,1,name,1,1,1449,1
1,3,2,23,1,name,2,2,1124,1
1,3,2,24,1,name,2,2,1185,1
1,3,2,25,1,name,2,2,2028.9999999999927,1
1,3,2,26,1,name,1,1,1508,1
1,3,2,27,1,name,2,2,1488,1
1,3,2,28,1,name,2,2,1102,1
1,3,2,29,1,name,1,1,1505,1
1,3,2,31,4,none,1,1,1527,1
1,3,2,32,4,none,2,2,1308,1
1,3,2,33,4,none,1,1,744,1
1,3,2,34,4,none,2,2,781,1
1,3,2,35,4,none,1,1,875,1
1,3,2,36,4,none,1,1,1155,1
1,3,2,37,4,none,2,2,1179,1
1,3,2,38,4,none,2,2,1680,1
1,3,2,39,4,none,2,2,1073,1
1,3,2,40,4,none,1,1,952,1
1,3,2,41,3,both,1,1,1879,1
1,3,2,42,3,both,1,1,1234,1
1,3,2,43,3,both,2,2,932,1
1,3,2,44,3,both,1,2,736.9999999999854,0
1,3,2,45,3,both,2,2,1860.9999999999854,1
1,3,2,46,3,both,1,1,1015.9999999999854,1
1,3,2,47,3,both,2,2,803.9999999999854,1
1,3,2,48,3,both,2,2,1040,1
1,3,2,49,3,both,2,1,674,0
1,3,2,50,3,both,1,1,900,1
1,3,2,52,1,name,2,2,1343,1
1,3,2,53,1,name,2,1,1182,0
1,3,2,54,1,name,1,1,2132,1
1,3,2,55,1,name,2,2,1085,1
1,3,2,56,1,name,1,1,939,1
1,3,2,57,1,name,1,1,1292,1
1,3,2,58,1,name,1,1,995,1
1,3,2,59,1,name,2,2,696,1
1,3,2,60,1,name,2,2,1388,1
1,3,2,61,2,tie,2,2,1484,1
1,3,2,62,2,tie,2,2,1327,1
1,3,2,63,2,tie,2,1,797,0
1,3,2,64,2,tie,1,1,1625,1
1,3,2,65,2,tie,1,1,543,1
1,3,2,66,2,tie,1,1,813,1
1,3,2,67,2,tie,2,1,1602,0
1,3,2,68,2,tie,2,1,876,0
1,3,2,69,2,tie,1,1,1071.999999999971,1
1,3,2,70,2,tie,1,2,1547,0
1,3,2,71,3,both,1,1,798,1
1,3,2,72,3,both,1,1,655,1
1,3,2,73,3,both,1,1,1222,1
1,3,2,74,3,both,2,2,1091,1
1,3,2,75,3,both,2,2,785,1
1,3,2,76,3,both,2,2,1055,1
1,3,2,77,3,both,2,2,796,1
1,3,2,78,3,both,2,2,858,1
1,3,2,79,3,both,1,1,554,1
1,3,2,80,3,both,1,2,928,0
1,4,1,1,1,name,2,2,1727.9999999999998,1
1,4,1,2,1,name,1,1,1083,1
1,4,1,3,1,name,2,2,1271,1
1,4,1,4,1,name,2,2,767,1
1,4,1,5,1,name,1,1,1081,1
1,4,1,6,1,name,2,2,1576,1
1,4,1,7,1,name,2,2,1463,1
1,4,1,8,1,name,1,2,936,0
1,4,1,9,1,name,1,1,1081,1
1,4,1,10,1,name,1,1,1029,1
1,4,1,11,3,both,1,1,1081,1
1,4,1,12,3,both,1,1,863,1
1,4,1,13,3,both,2,2,746,1
1,4,1,14,3,both,1,2,1549,0
1,4,1,15,3,both,2,2,1407.9999999999927,1
1,4,1,16,3,both,2,2,1449,1
1,4,1,17,3,both,2,1,1267,0
1,4,1,18,3,both,2,2,1031,1
1,4,1,19,3,both,1,2,1324,0
1,4,1,20,3,both,1,1,1261,1
1,4,1,21,2,tie,2,2,963,1
1,4,1,22,2,tie,2,2,1062,1
1,4,1,23,2,tie,2,2,1675,1
1,4,1,24,2,tie,1,1,1258,1
1,4,1,25,2,tie,1,1,1434,1
1,4,1,26,2,tie,2,2,1009,1
1,4,1,27,2,tie,1,1,1146,1
1,4,1,28,2,tie,1,1,1580,1
1,4,1,29,2,tie,1,1,1400,1
1,4,1,30,2,tie,2,2,1380,1
1,4,1,31,4,none,2,2,1254,1
1,4,1,32,4,none,2,2,1094,1
1,4,1,33,4,none,1,1,1105,1
1,4,1,34,4,none,2,2,1133,1
1,4,1,35,4,none,1,1,1698,1
1,4,1,36,4,none,2,2,759,1
1,4,1,37,4,none,1,1,740,1
1,4,1,38,4,none,1,1,891,1
1,4,1,39,4,none,1,1,860,1
1,4,1,40,4,none,2,1,1228,0
1,4,1,41,3,both,2,2,1080,1
1,4,1,42,3,both,2,2,791,1
1,4,1,43,3,both,1,1,1125,1
1,4,1,44,3,both,1,1,891,1
1,4,1,45,3,both,1,2,1111,0
1,4,1,46,3,both,1,1,1090,1
1,4,1,47,3,both,2,2,1063,1
1,4,1,48,3,both,1,1,1112,1
1,4,1,49,3,both,2,2,1864,1
1,4,1,50,3,both,2,2,754,1
1,4,1,51,1,name,1,1,1074,1
1,4,1,52,1,name,2,2,1252,1
1,4,1,53,1,name,2,2,852,1
1,4,1,54,1,name,2,2,623,1
1,4,1,55,1,name,2,2,1144,1
1,4,1,56,1,name,1,1,1287,1
1,4,1,57,1,name,1,2,1135,0
1,4,1,58,1,name,1,1,1210,1
1,4,1,59,1,name,1,1,779,1
1,4,1,60,1,name,2,2,993,1
1,4,1,61,4,none,2,2,1476,1
1,4,1,62,4,none,1,1,1485,1
1,4,1,63,4,none,2,2,1145,1
1,4,1,64,4,none,2,2,856,1
1,4,1,65,4,none,1,2,2120,0
1,4,1,66,4,none,1,1,777.9999999999709,1
1,4,1,67,4,none,2,2,1595,1
1,4,1,68,4,none,2,2,817,1
1,4,1,69,4,none,1,1,989,1
1,4,1,70,4,none,1,1,870,1
1,4,1,71,2,tie,1,1,1193.999999999971,1
1,4,1,72,2,tie,1,1,906,1
1,4,1,73,2,tie,2,2,1226,1
1,4,1,74,2,tie,2,2,1301,1
1,4,1,75,2,tie,2,2,1273,1
1,4,1,76,2,tie,1,1,1117,1
1,4,1,77,2,tie,2,2,742,1
1,4,1,78,2,tie,2,2,697,1
1,4,1,79,2,tie,1,2,1226,0
1,4,1,80,2,tie,1,2,1736,0
1,4,2,2,4,none,2,1,1710,0
1,4,2,3,4,none,2,2,1595.9999999999982,1
1,4,2,4,4,none,1,1,1178,1
1,4,2,5,4,none,2,2,1856,1
1,4,2,6,4,none,2,2,1829,1
1,4,2,7,4,none,1,1,1644,1
1,4,2,8,4,none,1,1,1271,1
1,4,2,9,4,none,2,2,1375,1
1,4,2,10,4,none,1,1,1536,1
1,4,2,11,1,name,1,1,1492,1
1,4,2,12,1,name,2,2,1327,1
1,4,2,13,1,name,1,1,1303,1
1,4,2,14,1,name,2,2,1042,1
1,4,2,15,1,name,2,2,1367,1
1,4,2,16,1,name,1,1,1121,1
1,4,2,17,1,name,1,1,1566,1
1,4,2,18,1,name,1,2,2123,0
1,4,2,19,1,name,2,2,1345,1
1,4,2,20,1,name,2,2,1509,1
1,4,2,22,2,tie,2,2,1203,1
1,4,2,23,2,tie,1,1,1078,1
1,4,2,24,2,tie,2,2,1321.9999999999927,1
1,4,2,25,2,tie,2,2,1328,1
1,4,2,26,2,tie,1,1,1842,1
1,4,2,27,2,tie,1,1,2109,1
1,4,2,28,2,tie,2,2,1046,1
1,4,2,29,2,tie,2,2,1099,1
1,4,2,30,2,tie,1,1,1023,1
1,4,2,31,1,name,1,1,837,1
1,4,2,32,1,name,2,1,1377,0
1,4,2,33,1,name,2,2,927,1
1,4,2,34,1,name,1,1,906,1
1,4,2,35,1,name,1,1,1613,1
1,4,2,36,1,name,2,2,1356,1
1,4,2,37,1,name,1,1,2141,1
1,4,2,38,1,name,2,2,1618,1
1,4,2,39,1,name,2,2,907,1
1,4,2,40,1,name,1,1,814,1
1,4,2,41,3,both,2,2,1494.9999999999854,1
1,4,2,42,3,both,1,1,1178.9999999999854,1
1,4,2,43,3,both,2,2,680.9999999999854,1
1,4,2,44,3,both,1,1,976,1
1,4,2,45,3,both,2,2,981,1
1,4,2,46,3,both,2,2,918,1
1,4,2,47,3,both,2,2,718,1
1,4,2,48,3,both,1,1,700,1
1,4,2,49,3,both,1,1,1108,1
1,4,2,50,3,both,1,1,715,1
1,4,2,51,4,none,2,2,901,1
1,4,2,52,4,none,1,1,1455,1
1,4,2,53,4,none,1,1,587,1
1,4,2,54,4,none,2,2,1581,1
1,4,2,55,4,none,2,2,985,1
1,4,2,57,4,none,1,1,1534,1
1,4,2,58,4,none,2,1,901,0
1,4,2,59,4,none,2,2,990,1
1,4,2,60,4,none,1,1,1539.999999999971,1
1,4,2,61,3,both,2,2,1437.999999999971,1
1,4,2,62,3,both,1,1,1411.999999999971,1
1,4,2,63,3,both,2,2,680,1
1,4,2,64,3,both,1,1,880,1
1,4,2,65,3,both,1,1,1076,1
1,4,2,66,3,both,1,1,586,1
1,4,2,67,3,both,2,2,601,1
1,4,2,68,3,both,2,2,834,1
1,4,2,69,3,both,2,2,936,1
1,4,2,70,3,both,1,2,1138.999999999971,0
1,4,2,71,2,tie,1,1,2160.999999999971,1
1,4,2,72,2,tie,1,1,550,1
1,4,2,73,2,tie,1,1,788,1
1,4,2,74,2,tie,1,1,1015.9999999999709,1
1,4,2,75,2,tie,2,2,860,1
1,4,2,76,2,tie,2,2,1110,1
1,4,2,77,2,tie,2,2,1113,1
1,4,2,78,2,tie,1,1,1347,1
1,4,2,79,2,tie,2,2,860,1
1,4,2,80,2,tie,2,2,1063,1
1,5,1,1,2,tie,1,1,1682,1
1,5,1,2,2,tie,2,2,1424.999999999999,1
1,5,1,3,2,tie,2,2,732,1
1,5,1,4,2,tie,2,2,926,1
1,5,1,5,2,tie,1,1,986,1
1,5,1,6,2,tie,1,1,1538,1
1,5,1,7,2,tie,1,1,925.9999999999964,1
1,5,1,8,2,tie,2,2,981,1
1,5,1,9,2,tie,1,2,791,0
1,5,1,10,2,tie,2,2,665,1
1,5,1,13,1,name,2,2,914,1
1,5,1,14,1,name,1,1,1395,1
1,5,1,15,1,name,2,2,1195,1
1,5,1,16,1,name,2,2,742,1
1,5,1,17,1,name,2,2,918,1
1,5,1,18,1,name,2,2,627,1
1,5,1,19,1,name,1,2,1400,0
1,5,1,20,1,name,1,1,1074,1
1,5,1,21,4,none,2,2,868,1
1,5,1,22,4,none,1,2,1128.9999999999927,0
1,5,1,23,4,none,2,2,962,1
1,5,1,24,4,none,1,1,869,1
1,5,1,25,4,none,1,1,1210.9999999999854,1
1,5,1,26,4,none,1,2,651,0
1,5,1,27,4,none,2,2,900,1
1,5,1,28,4,none,2,2,900,1
1,5,1,29,4,none,1,1,734.9999999999854,1
1,5,1,30,4,none,2,2,671,1
1,5,1,32,2,tie,2,2,1033.9999999999854,1
1,5,1,33,2,tie,1,1,1428,1
1,5,1,34,2,tie,2,2,1371,1
1,5,1,35,2,tie,2,2,1338,1
1,5,1,36,2,tie,2,2,872,1
1,5,1,37,2,tie,2,2,1208,1
1,5,1,38,2,tie,1,1,791,1
1,5,1,39,2,tie,1,1,1288,1
1,5,1,40,2,tie,1,1,893,1
1,5,1,41,3,both,2,2,917,1
1,5,1,42,3,both,2,2,884,1
1,5,1,43,3,both,2,2,1011,1
1,5,1,44,3,both,1,1,1727,1
1,5,1,45,3,both,2,2,1139.9999999999854,1
1,5,1,46,3,both,1,1,829.9999999999854,1
1,5,1,47,3,both,1,1,1057.9999999999854,1
1,5,1,48,3,both,1,2,1585.9999999999854,0
1,5,1,49,3,both,1,1,1342.999999999971,1
1,5,1,50,3,both,2,2,861,1
1,5,1,51,4,none,2,2,945,1
1,5,1,52,4,none,1,1,990,1
1,5,1,53,4,none,2,2,587.9999999999709,1
1,5,1,54,4,none,1,1,935,1
1,5,1,55,4,none,1,1,868,1
1,5,1,56,4,none,1,1,867,1
1,5,1,57,4,none,2,2,954,1
1,5,1,58,4,none,2,1,958,0
1,5,1,59,4,none,1,1,712,1
1,5,1,60,4,none,2,2,1483,1
1,5,1,61,3,both,2,1,1504,0
1,5,1,62,3,both,1,1,1027,1
1,5,1,63,3,both,2,2,532,1
1,5,1,64,3,both,1,1,606,1
1,5,1,65,3,both,1,1,760,1
1,5,1,66,3,both,2,2,994,1
1,5,1,67,3,both,1,1,671,1
1,5,1,68,3,both,2,1,1017,0
1,5,1,69,3,both,2,2,1184,1
1,5,1,70,3,both,1,1,961,1
1,5,1,71,1,name,1,1,986,1
1,5,1,72,1,name,2,2,712,1
1,5,1,74,1,name,1,1,1211,1
1,5,1,75,1,name,2,1,849,0
1,5,1,76,1,name,1,2,578,0
1,5,1,77,1,name,2,2,622,1
1,5,1,78,1,name,2,2,798.9999999999709,1
1,5,1,80,1,name,1,1,853,1
1,5,2,1,3,both,1,2,1544,0
1,5,2,2,3,both,1,1,1070,1
1,5,2,3,3,both,2,1,836.9999999999991,0
1,5,2,4,3,both,1,2,857,0
1,5,2,5,3,both,1,1,993,1
1,5,2,6,3,both,2,2,870,1
1,5,2,7,3,both,1,1,731,1
1,5,2,8,3,both,2,2,1129,1
1,5,2,9,3,both,2,2,1226,1
1,5,2,10,3,both,2,2,1039,1
1,5,2,11,4,none,2,2,894,1
1,5,2,12,4,none,2,2,1027,1
1,5,2,13,4,none,1,2,852,0
1,5,2,14,4,none,1,1,820,1
1,5,2,15,4,none,2,1,536,0
1,5,2,16,4,none,1,1,678.9999999999927,1
1,5,2,17,4,none,1,1,925,1
1,5,2,18,4,none,1,1,687,1
1,5,2,19,4,none,2,2,861,1
1,5,2,20,4,none,2,2,967,1
1,5,2,21,1,name,1,1,734,1
1,5,2,22,1,name,1,1,719,1
1,5,2,23,1,name,1,1,1722,1
1,5,2,24,1,name,2,2,931,1
1,5,2,25,1,name,1,1,803,1
1,5,2,26,1,name,2,2,975,1
1,5,2,27,1,name,1,2,1141,0
1,5,2,28,1,name,2,2,1135,1
1,5,2,29,1,name,2,2,895,1
1,5,2,30,1,name,2,2,804,1
1,5,2,31,3,both,2,2,944,1
1,5,2,32,3,both,1,2,1128.9999999999854,0
1,5,2,33,3,both,2,2,1142,1
1,5,2,34,3,both,1,1,613,1
1,5,2,35,3,both,2,2,638,1
1,5,2,36,3,both,1,1,590,1
1,5,2,37,3,both,2,2,709,1
1,5,2,38,3,both,1,2,1399,0
1,5,2,39,3,both,1,1,697,1
1,5,2,40,3,both,2,2,949,1
1,5,2,42,2,tie,2,2,819.9999999999854,1
1,5,2,43,2,tie,1,1,1153,1
1,5,2,44,2,tie,1,1,1007,1
1,5,2,45,2,tie,1,2,852,0
1,5,2,46,2,tie,2,2,647,1
1,5,2,47,2,tie,2,2,858,1
1,5,2,48,2,tie,2,2,829.0000000000146,1
1,5,2,49,2,tie,2,2,1011,1
1,5,2,50,2,tie,1,1,825,1
1,5,2,51,1,name,1,1,1111,1
1,5,2,52,1,name,1,1,1025,1
1,5,2,53,1,name,1,1,843,1
1,5,2,54,1,name,2,1,1134,0
1,5,2,55,1,name,1,2,745,0
1,5,2,56,1,name,2,2,923,1
1,5,2,57,1,name,2,2,1599,1
1,5,2,58,1,name,1,2,1357,0
1,5,2,59,1,name,2,2,1208,1
1,5,2,60,1,name,2,2,800,1
1,5,2,61,4,none,2,2,1089,1
1,5,2,62,4,none,1,1,650,1
1,5,2,63,4,none,2,2,1335,1
1,5,2,64,4,none,2,2,2128,1
1,5,2,65,4,none,2,2,1120,1
1,5,2,66,4,none,1,2,1689.999999999971,0
1,5,2,67,4,none,2,2,899,1
1,5,2,68,4,none,1,2,1181,0
1,5,2,69,4,none,1,1,1675.999999999971,1
1,5,2,70,4,none,1,1,1380,1
1,5,2,71,2,tie,1,2,1701,0
1,5,2,72,2,tie,1,1,667,1
1,5,2,73,2,tie,2,2,921,1
1,5,2,74,2,tie,2,2,1115,1
1,5,2,75,2,tie,1,1,715,1
1,5,2,77,2,tie,2,2,850,1
1,5,2,78,2,tie,2,2,1341,1
1,5,2,79,2,tie,1,1,653,1
1,5,2,80,2,tie,2,2,631,1
2,1,1,1,4,none,1,1,2060,1
2,1,1,2,4,none,1,1,1205.9999999999982,1
2,1,1,3,4,none,1,1,1140,1
2,1,1,5,4,none,2,2,1214,1
2,1,1,6,4,none,2,2,1485,1
2,1,1,7,4,none,1,1,1156,1
2,1,1,8,4,none,2,2,1381,1
2,1,1,9,4,none,2,2,1484.9999999999964,1
2,1,1,10,4,none,2,2,1851.9999999999927,1
2,1,1,11,1,name,2,1,1723,0
2,1,1,12,1,name,2,2,2074,1
2,1,1,13,1,name,2,2,1737,1
2,1,1,14,1,name,1,1,1197,1
2,1,1,15,1,name,2,2,1114,1
2,1,1,16,1,name,1,1,1304,1
2,1,1,17,1,name,1,1,1581,1
2,1,1,18,1,name,1,1,1665,1
2,1,1,19,1,name,1,1,1606.9999999999927,1
2,1,1,20,1,name,2,2,1959,1
2,1,1,21,3,both,2,2,1222,1
2,1,1,22,3,both,2,2,1673.9999999999854,1
2,1,1,23,3,both,1,1,1492,1
2,1,1,24,3,both,1,1,1168,1
2,1,1,25,3,both,2,2,1087,1
2,1,1,26,3,both,1,1,1044,1
2,1,1,27,3,both,1,2,1075,0
2,1,1,28,3,both,2,2,913,1
2,1,1,29,3,both,2,2,959,1
2,1,1,30,3,both,1,1,1445,1
2,1,1,31,4,none,2,2,1148,1
2,1,1,32,4,none,1,1,1760,1
2,1,1,33,4,none,1,1,1659,1
2,1,1,34,4,none,1,1,1850,1
2,1,1,35,4,none,1,1,1096,1
2,1,1,36,4,none,2,2,1096,1
2,1,1,37,4,none,1,1,1252,1
2,1,1,38,4,none,2,2,1195,1
2,1,1,39,4,none,2,2,769,1
2,1,1,40,4,none,2,1,1024,0
2,1,1,41,1,name,1,1,1842,1
2,1,1,42,1,name,2,2,1424,1
2,1,1,43,1,name,2,2,1053,1
2,1,1,44,1,name,1,1,1267,1
2,1,1,46,1,name,1,1,1347,1
2,1,1,47,1,name,1,1,1275,1
2,1,1,48,1,name,2,2,1341,1
2,1,1,49,1,name,2,2,1079.999999999971,1
2,1,1,50,1,name,2,2,1582,1
2,1,1,51,2,tie,2,2,2049,1
2,1,1,52,2,tie,1,1,1199,1
2,1,1,53,2,tie,1,2,1765,0
2,1,1,54,2,tie,1,1,764,1
2,1,1,55,2,tie,2,2,749,1
2,1,1,56,2,tie,2,2,1016,1
2,1,1,57,2,tie,1,1,1103,1
2,1,1,58,2,tie,2,2,1246,1
2,1,1,59,2,tie,2,2,2178,1
2,1,1,60,2,tie,1,1,1321,1
2,1,1,61,3,both,1,1,2100,1
2,1,1,62,3,both,1,1,830,1
2,1,1,63,3,both,2,2,957,1
2,1,1,64,3,both,2,2,1198,1
2,1,1,65,3,both,1,1,808,1
2,1,1,66,3,both,2,2,739,1
2,1,1,67,3,both,1,1,1159.999999999971,1
2,1,1,68,3,both,2,2,1164,1
2,1,1,69,3,both,1,1,979.9999999999709,1
2,1,1,70,3,both,2,2,944,1
2,1,1,71,2,tie,1,1,1026,1
2,1,1,72,2,tie,1,1,1702,1
2,1,1,73,2,tie,2,2,1023,1
2,1,1,74,2,tie,2,2,987,1
2,1,1,75,2,tie,2,2,1582,1
2,1,1,76,2,tie,1,1,1407,1
2,1,1,78,2,tie,1,1,1595,1
2,1,1,79,2,tie,2,2,2170,1
2,1,1,80,2,tie,2,2,1472,1
2,1,2,1,1,name,1,1,2260,1
2,1,2,2,1,name,1,1,1393,1
2,1,2,3,1,name,1,1,1445,1
2,1,2,4,1,name,2,2,1383,1
2,1,2,5,1,name,1,1,1138,1
2,1,2,6,1,name,2,2,1065,1
2,1,2,7,1,name,2,2,1184,1
2,1,2,8,1,name,2,2,1213,1
2,1,2,9,1,name,1,1,885,1
2,1,2,10,1,name,2,2,1229,1
2,1,2,11,3,both,2,2,765,1
2,1,2,12,3,both,2,2,1419,1
2,1,2,13,3,both,2,2,1658,1
2,1,2,14,3,both,2,1,1056,0
2,1,2,15,3,both,1,1,1679,1
2,1,2,16,3,both,1,2,1194,0
2,1,2,17,3,both,2,2,1080,1
2,1,2,18,3,both,1,1,1051,1
2,1,2,19,3,both,1,1,1906,1
2,1,2,20,3,both,1,1,1919,1
2,1,2,21,4,none,1,2,2032,0
2,1,2,22,4,none,2,2,995,1
2,1,2,23,4,none,2,2,1077,1
2,1,2,24,4,none,2,2,1798.9999999999854,1
2,1,2,25,4,none,1,1,1162,1
2,1,2,26,4,none,1,1,1587,1
2,1,2,27,4,none,2,2,1215.9999999999854,1
2,1,2,28,4,none,1,2,2247,0
2,1,2,29,4,none,2,2,1491,1
2,1,2,30,4,none,1,1,919,1
2,1,2,31,3,both,2,2,679,1
2,1,2,32,3,both,2,2,985,1
2,1,2,33,3,both,1,1,946,1
2,1,2,34,3,both,1,1,1899,1
2,1,2,35,3,both,1,1,1150,1
2,1,2,36,3,both,2,2,893.9999999999854,1
2,1,2,37,3,both,2,2,720,1
2,1,2,38,3,both,2,1,963.9999999999854,0
2,1,2,39,3,both,1,1,886,1
2,1,2,40,3,both,1,1,610,1
2,1,2,41,2,tie,1,2,2130,0
2,1,2,42,2,tie,2,2,1100,1
2,1,2,44,2,tie,1,1,1668.999999999971,1
2,1,2,45,2,tie,1,1,2158,1
2,1,2,46,2,tie,2,2,1144,1
2,1,2,47,2,tie,1,1,1096,1
2,1,2,48,2,tie,2,1,965,0
2,1,2,49,2,tie,2,1,1253,0
2,1,2,50,2,tie,1,1,1152,1
2,1,2,51,4,none,1,1,948,1
2,1,2,52,4,none,2,2,1215,1
2,1,2,53,4,none,2,1,1186,0
2,1,2,54,4,none,2,1,1468,0
2,1,2,55,4,none,1,1,1466,1
2,1,2,56,4,none,2,1,1425,0
2,1,2,57,4,none,1,1,1190,1
2,1,2,58,4,none,2,1,1237.999999999971,0
2,1,2,59,4,none,1,1,851,1
2,1,2,60,4,none,1,1,867.9999999999709,1
2,1,2,61,2,tie,1,1,1743,1
2,1,2,62,2,tie,2,1,854,0
2,1,2,63,2,tie,1,1,1094,1
2,1,2,64,2,tie,1,1,1190,1
2,1,2,65,2,tie,1,1,1120,1
2,1,2,66,2,tie,2,1,949.9999999999709,0
2,1,2,70,2,tie,2,2,1961,1
2,1,2,71,1,name,1,1,828,1
2,1,2,72,1,name,2,2,1445,1
2,1,2,73,1,name,1,1,1449.999999999971,1
2,1,2,74,1,name,1,1,1434,1
2,1,2,75,1,name,2,2,1224,1
2,1,2,76,1,name,1,2,1622,0
2,1,2,78,1,name,1,1,2140,1
2,1,2,79,1,name,2,1,1419,0
2,1,2,80,1,name,2,2,1670,1
2,2,1,1,1,name,1,1,1318,1
2,2,1,2,1,name,1,1,1257,1
2,2,1,3,1,name,2,2,2240,1
2,2,1,4,1,name,2,2,1622,1
2,2,1,5,1,name,1,1,1237.9999999999982,1
2,2,1,6,1,name,2,2,1626,1
2,2,1,7,1,name,1,1,973,1
2,2,1,8,1,name,2,2,1830,1
2,2,1,9,1,name,1,1,1046,1
2,2,1,10,1,name,2,2,1545,1
2,2,1,11,2,tie,2,2,1697,1
2,2,1,12,2,tie,1,1,1084,1
2,2,1,13,2,tie,1,1,1147,1
2,2,1,14,2,tie,1,1,1059,1
2,2,1,15,2,tie,2,2,984,1
2,2,1,16,2,tie,2,2,1081,1
2,2,1,17,2,tie,1,1,1857,1
2,2,1,18,2,tie,2,2,1243.9999999999927,1
2,2,1,19,2,tie,1,1,916,1
2,2,1,20,2,tie,2,2,918,1
2,2,1,21,3,both,1,1,1405.9999999999927,1
2,2,1,22,3,both,2,2,1099,1
2,2,1,23,3,both,2,2,1603,1
2,2,1,24,3,both,1,1,1508,1
2,2,1,25,3,both,1,1,733,1
2,2,1,26,3,both,1,1,1657.9999999999854,1
2,2,1,27,3,both,2,2,1418,1
2,2,1,28,3,both,2,2,1231,1
2,2,1,29,3,both,2,2,1402.9999999999854,1
2,2,1,30,3,both,1,1,1833,1
2,2,1,31,4,none,1,1,1425,1
2,2,1,32,4,none,2,2,1380,1
2,2,1,33,4,none,2,2,762,1
2,2,1,34,4,none,1,1,1976,1
2,2,1,35,4,none,1,1,1130,1
2,2,1,36,4,none,1,1,777,1
2,2,1,37,4,none,2,2,1180.9999999999854,1
2,2,1,38,4,none,2,2,1089,1
2,2,1,39,4,none,1,1,1417,1
2,2,1,40,4,none,2,2,967.9999999999854,1
2,2,1,41,3,both,2,2,1805,1
2,2,1,42,3,both,1,1,680,1
2,2,1,43,3,both,1,1,1535.9999999999854,1
2,2,1,44,3,both,1,1,1606,1
2,2,1,45,3,both,1,2,1859,0
2,2,1,46,3,both,1,1,666,1
2,2,1,47,3,both,2,2,1422,1
2,2,1,48,3,both,2,2,1500,1
2,2,1,49,3,both,2,2,1309,1
2,2,1,50,3,both,2,2,918,1
2,2,1,51,1,name,1,2,1077,0
2,2,1,52,1,name,1,1,1090,1
2,2,1,53,1,name,2,2,891,1
2,2,1,54,1,name,2,2,1669,1
2,2,1,55,1,name,1,1,1108,1
2,2,1,56,1,name,1,1,993,1
2,2,1,57,1,name,2,1,1187,0
2,2,1,58,1,name,2,2,1064,1
2,2,1,59,1,name,2,2,1276,1
2,2,1,60,1,name,1,1,1521,1
2,2,1,61,4,none,1,1,1621,1
2,2,1,62,4,none,2,2,851,1
2,2,1,63,4,none,1,1,822.9999999999709,1
2,2,1,64,4,none,1,1,1262,1
2,2,1,65,4,none,1,1,789,1
2,2,1,66,4,none,2,2,798.9999999999709,1
2,2,1,67,4,none,2,2,954,1
2,2,1,68,4,none,2,1,1517,0
2,2,1,69,4,none,1,1,998,1
2,2,1,70,4,none,2,1,1361,0
2,2,1,71,2,tie,1,1,1578,1
2,2,1,72,2,tie,1,1,1253,1
2,2,1,73,2,tie,1,1,1687,1
2,2,1,74,2,tie,2,2,949,1
2,2,1,75,2,tie,2,2,1400,1
2,2,1,76,2,tie,2,1,1780,0
2,2,1,77,2,tie,2,2,1188,1
2,2,1,78,2,tie,1,1,1528.999999999971,1
2,2,1,79,2,tie,1,1,1120,1
2,2,1,80,2,tie,2,2,919,1
2,2,2,1,1,name,2,2,1669.999999999999,1
2,2,2,2,1,name,1,1,690,1
2,2,2,3,1,name,2,2,1264,1
2,2,2,4,1,name,2,2,1150,1
2,2,2,5,1,name,1,1,1449.9999999999964,1
2,2,2,6,1,name,1,1,1062,1
2,2,2,7,1,name,2,2,871,1
2,2,2,8,1,name,1,1,1325,1
2,2,2,9,1,name,1,1,1647,1
2,2,2,10,1,name,2,2,1112,1
2,2,2,11,3,both,2,2,1074,1
2,2,2,12,3,both,2,2,1412,1
2,2,2,13,3,both,1,1,806,1
2,2,2,14,3,both,2,2,786.9999999999927,1
2,2,2,15,3,both,1,1,1191,1
2,2,2,16,3,both,1,1,1195,1
2,2,2,17,3,both,1,1,1061,1
2,2,2,18,3,both,2,2,1245,1
2,2,2,19,3,both,2,2,1037,1
2,2,2,20,3,both,1,1,731,1
2,2,2,21,1,name,1,1,1401,1
2,2,2,22,1,name,2,2,1040.9999999999927,1
2,2,2,23,1,name,2,2,1219,1
2,2,2,24,1,name,2,2,911,1
2,2,2,25,1,name,1,1,1073,1
2,2,2,26,1,name,2,2,853,1
2,2,2,27,1,name,1,2,1503,0
2,2,2,28,1,name,1,2,1716,0
2,2,2,29,1,name,2,2,1129,1
2,2,2,30,1,name,1,1,856.9999999999854,1
2,2,2,31,2,tie,1,1,1358,1
2,2,2,32,2,tie,2,2,1221,1
2,2,2,33,2,tie,1,1,1712,1
2,2,2,34,2,tie,2,1,2293,0
2,2,2,35,2,tie,1,1,1047,1
2,2,2,36,2,tie,2,2,1584,1
2,2,2,37,2,tie,2,2,1366.9999999999854,1
2,2,2,38,2,tie,1,1,1806.9999999999854,1
2,2,2,39,2,tie,1,1,797.9999999999854,1
2,2,2,40,2,tie,2,2,1321,1
2,2,2,41,4,none,1,1,1605,1
2,2,2,42,4,none,2,2,872,1
2,2,2,43,4,none,2,2,962,1
2,2,2,44,4,none,1,1,1057,1
2,2,2,45,4,none,2,1,1197,0
2,2,2,46,4,none,1,1,1119,1
2,2,2,47,4,none,2,2,862,1
2,2,2,48,4,none,1,1,1064,1
2,2,2,49,4,none,2,2,1631,1
2,2,2,50,4,none,1,1,749,1
2,2,2,51,3,both,1,1,1587,1
2,2,2,52,3,both,1,1,1089,1
2,2,2,53,3,both,2,2,1098,1
2,2,2,54,3,both,1,1,1425,1
2,2,2,55,3,both,1,1,946,1
2,2,2,56,3,both,1,2,1377,0
2,2,2,57,3,both,2,2,1421.999999999971,1
2,2,2,58,3,both,2,2,1205,1
2,2,2,59,3,both,2,2,979,1
2,2,2,60,3,both,2,2,1030,1
2,2,2,61,4,none,1,1,1453,1
2,2,2,62,4,none,1,1,1440,1
2,2,2,63,4,none,1,1,1453,1
2,2,2,64,4,none,2,1,1539,0
2,2,2,65,4,none,2,2,847,1
2,2,2,66,4,none,2,2,1038,1
2,2,2,67,4,none,2,2,1212,1
2,2,2,68,4,none,2,1,1341,0
2,2,2,69,4,none,1,1,892,1
2,2,2,70,4,none,1,1,761,1
2,2,2,71,2,tie,1,1,1495,1
2,2,2,72,2,tie,2,2,1263,1
2,2,2,73,2,tie,1,1,1181,1
2,2,2,74,2,tie,1,1,1364,1
2,2,2,75,2,tie,2,2,1225,1
2,2,2,76,2,tie,1,1,1261,1
2,2,2,77,2,tie,2,1,1399,0
2,2,2,78,2,tie,2,1,1955.999999999971,0
2,2,2,79,2,tie,1,1,1032,1
2,2,2,80,2,tie,2,2,1267,1
2,3,1,3,4,none,2,2,1057,1
2,3,1,4,4,none,1,1,871,1
2,3,1,5,4,none,1,1,1069.9999999999982,1
2,3,1,6,4,none,2,2,1099,1
2,3,1,7,4,none,2,2,1412,1
2,3,1,8,4,none,1,1,1822,1
2,3,1,9,4,none,1,1,928,1
2,3,1,10,4,none,2,2,905,1
2,3,1,11,3,both,1,1,945,1
2,3,1,12,3,both,2,2,928,1
2,3,1,13,3,both,1,1,1095,1
2,3,1,14,3,both,1,2,1236,0
2,3,1,15,3,both,2,2,928,1
2,3,1,16,3,both,2,1,1122,0
2,3,1,17,3,both,1,1,1552,1
2,3,1,18,3,both,1,1,1517,1
2,3,1,19,3,both,2,2,1388,1
2,3,1,20,3,both,2,2,918.9999999999927,1
2,3,1,21,2,tie,1,1,1342,1
2,3,1,22,2,tie,2,2,2066,1
2,3,1,23,2,tie,2,2,763,1
2,3,1,24,2,tie,2,2,814.9999999999854,1
2,3,1,25,2,tie,1,1,1018,1
2,3,1,26,2,tie,1,1,971,1
2,3,1,27,2,tie,2,2,1467,1
2,3,1,28,2,tie,1,1,948,1
2,3,1,29,2,tie,2,2,1227,1
2,3,1,30,2,tie,1,1,1246,1
2,3,1,31,1,name,1,1,2019,1
2,3,1,32,1,name,2,2,1035.9999999999854,1
2,3,1,33,1,name,2,2,1384,1
2,3,1,34,1,name,2,2,920.9999999999854,1
2,3,1,35,1,name,2,2,1141,1
2,3,1,36,1,name,2,1,1262,0
2,3,1,37,1,name,1,1,1815,1
2,3,1,38,1,name,1,1,1153,1
2,3,1,39,1,name,1,1,1619,1
2,3,1,40,1,name,1,1,1351,1
2,3,1,41,2,tie,1,1,1180,1
2,3,1,42,2,tie,1,1,983,1
2,3,1,43,2,tie,1,1,920,1
2,3,1,44,2,tie,2,2,976,1
2,3,1,45,2,tie,2,2,1228,1
2,3,1,46,2,tie,2,2,1037,1
2,3,1,47,2,tie,2,2,1151.9999999999854,1
2,3,1,48,2,tie,2,2,1433,1
2,3,1,49,2,tie,1,1,1690,1
2,3,1,50,2,tie,1,1,1399,1
2,3,1,51,3,both,1,1,1007,1
2,3,1,52,3,both,1,1,1143,1
2,3,1,53,3,both,2,2,1157,1
2,3,1,54,3,both,2,2,1211,1
2,3,1,55,3,both,1,1,1596,1
2,3,1,56,3,both,2,2,991,1
2,3,1,57,3,both,1,1,1049.999999999971,1
2,3,1,58,3,both,2,1,1183,0
2,3,1,59,3,both,2,2,1126,1
2,3,1,60,3,both,1,1,1423,1
2,3,1,61,4,none,2,2,1555,1
2,3,1,62,4,none,1,1,868,1
2,3,1,63,4,none,2,2,1558,1
2,3,1,64,4,none,1,1,1694,1
2,3,1,65,4,none,2,2,1386,1
2,3,1,66,4,none,2,2,1720,1
2,3,1,67,4,none,1,1,751,1
2,3,1,68,4,none,1,1,1454,1
2,3,1,69,4,none,1,1,953,1
2,3,1,70,4,none,2,1,1708,0
2,3,1,71,1,name,1,1,1882,1
2,3,1,72,1,name,1,1,853,1
2,3,1,73,1,name,1,1,699,1
2,3,1,74,1,name,2,2,1044,1
2,3,1,75,1,name,2,2,1695,1
2,3,1,76,1,name,2,2,886,1
2,3,1,77,1,name,2,2,1550,1
2,3,1,78,1,name,1,1,1195,1
2,3,1,79,1,name,2,2,977.9999999999709,1
2,3,1,80,1,name,1,1,1535,1
2,3,2,1,4,none,2,2,1164,1
2,3,2,2,4,none,1,1,1263,1
2,3,2,3,4,none,1,1,1016,1
2,3,2,4,4,none,1,1,1476,1
2,3,2,5,4,none,2,1,2304,0
2,3,2,6,4,none,2,1,1198,0
2,3,2,7,4,none,2,2,1038,1
2,3,2,8,4,none,1,1,1061,1
2,3,2,9,4,none,2,2,1181.9999999999964,1
2,3,2,10,4,none,1,1,1436,1
2,3,2,11,3,both,2,2,1172,1
2,3,2,12,3,both,1,1,1411,1
2,3,2,13,3,both,1,1,1465,1
2,3,2,14,3,both,1,1,747,1
2,3,2,15,3,both,2,1,1584,0
2,3,2,16,3,both,2,2,1095.9999999999927,1
2,3,2,17,3,both,1,2,1169,0
2,3,2,18,3,both,2,2,1449,1
2,3,2,19,3,both,1,2,906,0
2,3,2,20,3,both,2,1,749,0
2,3,2,21,2,tie,2,2,965,1
2,3,2,22,2,tie,2,1,743,0
2,3,2,23,2,tie,2,2,1187,1
2,3,2,24,2,tie,1,1,1667,1
2,3,2,25,2,tie,1,1,624,1
2,3,2,26,2,tie,2,2,1019,1
2,3,2,27,2,tie,1,1,1232,1
2,3,2,28,2,tie,2,2,1263,1
2,3,2,29,2,tie,1,1,1551,1
2,3,2,30,2,tie,1,1,1095,1
2,3,2,31,1,name,2,2,1449,1
2,3,2,32,1,name,2,1,1354,0
2,3,2,33,1,name,1,1,1475,1
2,3,2,34,1,name,2,2,1643,1
2,3,2,35,1,name,1,1,996,1
2,3,2,36,1,name,1,1,912,1
2,3,2,37,1,name,2,2,803.9999999999854,1
2,3,2,38,1,name,1,1,975,1
2,3,2,39,1,name,1,1,1329,1
2,3,2,40,1,name,2,2,943,1
2,3,2,41,3,both,2,2,1113,1
2,3,2,42,3,both,1,1,1412,1
2,3,2,43,3,both,2,2,2419,1
2,3,2,44,3,both,2,2,956.9999999999854,1
2,3,2,45,3,both,1,1,645,1
2,3,2,46,3,both,1,1,1225,1
2,3,2,47,3,both,2,2,1229,1
2,3,2,48,3,both,2,2,872.0000000000146,1
2,3,2,50,3,both,1,2,935,0
2,3,2,51,4,none,1,1,1465,1
2,3,2,52,4,none,2,2,1817,1
2,3,2,53,4,none,2,2,1426,1
2,3,2,54,4,none,2,2,1747,1
2,3,2,55,4,none,1,1,1138,1
2,3,2,56,4,none,1,1,1244,1
2,3,2,57,4,none,1,1,1354,1
2,3,2,58,4,none,1,1,1550,1
2,3,2,60,4,none,2,1,1176.999999999971,0
2,3,2,61,2,tie,1,1,1073,1
2,3,2,62,2,tie,1,1,676,1
2,3,2,63,2,tie,1,1,1232,1
2,3,2,64,2,tie,1,1,954,1
2,3,2,65,2,tie,2,2,1714,1
2,3,2,66,2,tie,2,1,1417,0
2,3,2,67,2,tie,2,2,1014.9999999999709,1
2,3,2,68,2,tie,2,2,979.9999999999709,1
2,3,2,69,2,tie,1,1,1275,1
2,3,2,70,2,tie,2,2,1091,1
2,3,2,71,1,name,1,1,1041,1
2,3,2,72,1,name,2,2,1809,1
2,3,2,73,1,name,2,2,1159,1
2,3,2,74,1,name,1,1,1678,1
2,3,2,75,1,name,1,1,974.9999999999709,1
2,3,2,76,1,name,1,1,1052,1
2,3,2,77,1,name,1,1,907,1
2,3,2,78,1,name,2,2,1609,1
2,3,2,79,1,name,2,2,1080,1
2,3,2,80,1,name,2,2,814,1
2,4,1,1,4,none,1,1,1360,1
2,4,1,2,4,none,2,2,793,1
2,4,1,3,4,none,2,2,1281.999999999999,1
2,4,1,4,4,none,1,1,998,1
2,4,1,5,4,none,2,2,887,1
2,4,1,6,4,none,1,1,918,1
2,4,1,7,4,none,1,1,1002,1
2,4,1,8,4,none,1,1,2265,1
2,4,1,9,4,none,2,2,1099,1
2,4,1,10,4,none,2,2,1604,1
2,4,1,11,1,name,1,1,776,1
2,4,1,12,1,name,2,2,962,1
2,4,1,13,1,name,2,2,1582,1
2,4,1,14,1,name,1,1,1159,1
2,4,1,15,1,name,1,1,929,1
2,4,1,16,1,name,1,1,835.9999999999927,1
2,4,1,17,1,name,2,2,1391,1
2,4,1,18,1,name,1,1,1286,1
2,4,1,19,1,name,2,2,1119,1
2,4,1,20,1,name,2,2,828,1
2,4,1,21,2,tie,2,2,1532,1
2,4,1,22,2,tie,1,1,1057,1
2,4,1,23,2,tie,1,1,888,1
2,4,1,24,2,tie,1,1,1503,1
2,4,1,25,2,tie,2,2,1319,1
2,4,1,26,2,tie,2,2,1336,1
2,4,1,27,2,tie,2,1,1632,0
2,4,1,28,2,tie,1,1,1210,1
2,4,1,29,2,tie,1,2,1786,0
2,4,1,30,2,tie,2,2,1161,1
2,4,1,31,4,none,1,1,1527,1
2,4,1,33,4,none,1,1,1365,1
2,4,1,34,4,none,1,1,894,1
2,4,1,35,4,none,1,1,976,1
2,4,1,36,4,none,2,2,914,1
2,4,1,37,4,none,1,1,1273.9999999999854,1
2,4,1,38,4,none,2,2,1115,1
2,4,1,39,4,none,2,2,1223,1
2,4,1,40,4,none,2,2,1265,1
2,4,1,41,3,both,2,2,1940,1
2,4,1,42,3,both,1,1,831,1
2,4,1,43,3,both,1,2,1040,0
2,4,1,44,3,both,1,1,1261,1
2,4,1,45,3,both,2,2,698,1
2,4,1,46,3,both,1,1,1312,1
2,4,1,47,3,both,2,2,650,1
2,4,1,48,3,both,2,2,1010.9999999999854,1
2,4,1,49,3,both,2,2,1284,1
2,4,1,50,3,both,1,1,1456,1
2,4,1,51,1,name,1,1,1328,1
2,4,1,52,1,name,1,1,2229,1
2,4,1,53,1,name,1,1,1304,1
2,4,1,54,1,name,2,2,967,1
2,4,1,56,1,name,2,2,1529,1
2,4,1,57,1,name,2,2,786.9999999999709,1
2,4,1,58,1,name,2,2,996,1
2,4,1,59,1,name,1,1,1623,1
2,4,1,60,1,name,1,1,1112,1
2,4,1,61,3,both,2,2,1159,1
2,4,1,63,3,both,1,2,2111,0
2,4,1,64,3,both,2,2,1381,1
2,4,1,65,3,both,1,1,1177,1
2,4,1,66,3,both,2,2,1052,1
2,4,1,67,3,both,2,1,1141,0
2,4,1,68,3,both,1,1,1175,1
2,4,1,69,3,both,2,2,1456.999999999971,1
2,4,1,70,3,both,1,1,1686,1
2,4,1,71,2,tie,2,1,1566.999999999971,0
2,4,1,72,2,tie,2,2,1730,1
2,4,1,73,2,tie,1,1,1227,1
2,4,1,74,2,tie,1,1,1492.999999999971,1
2,4,1,75,2,tie,1,1,1581,1
2,4,1,76,2,tie,2,2,841,1
2,4,1,77,2,tie,2,2,1243,1
2,4,1,78,2,tie,2,2,1553,1
2,4,1,79,2,tie,1,1,1042,1
2,4,1,80,2,tie,1,1,1097,1
2,4,2,1,4,none,1,1,1342,1
2,4,2,2,4,none,2,2,810,1
2,4,2,3,4,none,1,1,1530,1
2,4,2,4,4,none,2,1,2178.999999999998,0
2,4,2,5,4,none,1,1,753,1
2,4,2,6,4,none,2,2,897,1
2,4,2,7,4,none,2,2,1044,1
2,4,2,8,4,none,1,1,1395,1
2,4,2,9,4,none,2,2,1516,1
2,4,2,10,4,none,1,1,981,1
2,4,2,11,2,tie,2,2,1898,1
2,4,2,12,2,tie,2,2,1639,1
2,4,2,13,2,tie,1,1,1279,1
2,4,2,14,2,tie,2,2,785,1
2,4,2,15,2,tie,1,1,1481,1
2,4,2,16,2,tie,2,2,1657,1
2,4,2,17,2,tie,2,2,1447,1
2,4,2,18,2,tie,1,1,1555,1
2,4,2,19,2,tie,1,1,1590,1
2,4,2,20,2,tie,1,1,1430,1
2,4,2,21,4,none,1,1,1465,1
2,4,2,22,4,none,2,2,998,1
2,4,2,23,4,none,1,1,1521,1
2,4,2,24,4,none,1,1,1125,1
2,4,2,25,4,none,2,2,1400,1
2,4,2,26,4,none,1,1,1393,1
2,4,2,27,4,none,2,2,1083,1
2,4,2,28,4,none,2,2,1113,1
2,4,2,29,4,none,1,2,1899,0
2,4,2,30,4,none,2,2,1032.9999999999854,1
2,4,2,31,3,both,1,1,1326,1
2,4,2,32,3,both,1,1,1209.9999999999854,1
2,4,2,33,3,both,2,2,1352,1
2,4,2,34,3,both,2,1,1489,0
2,4,2,35,3,both,2,2,921,1
2,4,2,36,3,both,2,2,1218,1
2,4,2,37,3,both,1,1,838,1
2,4,2,38,3,both,2,2,1305,1
2,4,2,39,3,both,1,1,900.9999999999854,1
2,4,2,40,3,both,1,1,1143,1
2,4,2,41,1,name,2,2,1700,1
2,4,2,42,1,name,1,1,1477,1
2,4,2,43,1,name,2,2,841,1
2,4,2,44,1,name,2,2,1035,1
2,4,2,45,1,name,2,2,1175,1
2,4,2,46,1,name,1,1,1410,1
2,4,2,47,1,name,2,2,891.9999999999854,1
2,4,2,49,1,name,1,2,2135,0
2,4,2,50,1,name,1,1,1299,1
2,4,2,51,3,both,2,2,1037,1
2,4,2,52,3,both,1,1,888,1
2,4,2,53,3,both,2,2,1741,1
2,4,2,54,3,both,1,1,721,1
2,4,2,55,3,both,2,2,809,1
2,4,2,56,3,both,1,1,1567,1
2,4,2,57,3,both,1,1,1699,1
2,4,2,58,3,both,2,2,850,1
2,4,2,59,3,both,2,2,1290,1
2,4,2,60,3,both,1,1,1811,1
2,4,2,61,1,name,1,1,1219,1
2,4,2,62,1,name,1,1,1165,1
2,4,2,63,1,name,2,2,1604,1
2,4,2,64,1,name,2,2,1088,1
2,4,2,65,1,name,2,2,1392,1
2,4,2,66,1,name,1,1,1494,1
2,4,2,68,1,name,2,2,1190,1
2,4,2,69,1,name,1,1,1146,1
2,4,2,70,1,name,1,1,887.9999999999709,1
2,4,2,71,2,tie,1,1,1162,1
2,4,2,72,2,tie,2,2,1377,1
2,4,2,74,2,tie,2,2,1097,1
2,4,2,75,2,tie,2,2,1681,1
2,4,2,76,2,tie,1,1,1329,1
2,4,2,77,2,tie,1,1,937,1
2,4,2,78,2,tie,2,2,941,1
2,4,2,79,2,tie,1,1,1387,1
2,4,2,80,2,tie,2,2,1017,1
2,5,1,1,2,tie,1,1,1966,1
2,5,1,2,2,tie,2,2,921,1
2,5,1,3,2,tie,2,2,985,1
2,5,1,4,2,tie,2,2,976,1
2,5,1,5,2,tie,1,1,1202.0000000000073,1
2,5,1,6,2,tie,2,2,1030,1
2,5,1,7,2,tie,1,1,1393.9999999999854,1
2,5,1,8,2,tie,1,1,1077,1
2,5,1,9,2,tie,2,2,1424,1
2,5,1,10,2,tie,1,1,1303,1
2,5,1,11,1,name,2,2,1226,1
2,5,1,12,1,name,2,2,1192,1
2,5,1,13,1,name,1,1,1261,1
2,5,1,14,1,name,1,1,1150,1
2,5,1,15,1,name,1,1,1062,1
2,5,1,16,1,name,1,1,923,1
2,5,1,17,1,name,2,2,916,1
2,5,1,18,1,name,2,2,983,1
2,5,1,19,1,name,1,1,855,1
2,5,1,20,1,name,2,2,1172,1
2,5,1,21,2,tie,1,1,1177,1
2,5,1,22,2,tie,1,1,1043,1
2,5,1,23,2,tie,2,2,1003,1
2,5,1,24,2,tie,2,2,1382,1
2,5,1,25,2,tie,1,1,1353,1
2,5,1,26,2,tie,1,1,1233,1
2,5,1,27,2,tie,2,2,1362,1
2,5,1,28,2,tie,1,1,1009,1
2,5,1,29,2,tie,2,2,1323,1
2,5,1,30,2,tie,2,2,1644.0000000000146,1
2,5,1,31,3,both,2,2,940,1
2,5,1,32,3,both,1,1,633,1
2,5,1,34,3,both,1,1,1906,1
2,5,1,35,3,both,2,2,1300,1
2,5,1,36,3,both,2,2,922,1
2,5,1,37,3,both,2,2,1473,1
2,5,1,38,3,both,1,1,1016,1
2,5,1,39,3,both,2,2,1166,1
2,5,1,40,3,both,1,1,879,1
2,5,1,41,4,none,1,1,1337,1
2,5,1,42,4,none,2,2,1559,1
2,5,1,43,4,none,2,2,1620,1
2,5,1,44,4,none,2,1,1508,0
2,5,1,45,4,none,2,2,1860,1
2,5,1,46,4,none,1,1,1151,1
2,5,1,47,4,none,1,1,1197,1
2,5,1,48,4,none,2,2,1348,1
2,5,1,49,4,none,1,1,736,1
2,5,1,50,4,none,1,1,1538,1
2,5,1,51,1,name,2,2,872,1
2,5,1,52,1,name,2,2,1573,1
2,5,1,53,1,name,2,2,818,1
2,5,1,54,1,name,1,1,1396,1
2,5,1,55,1,name,1,1,1721.999999999971,1
2,5,1,56,1,name,1,1,2463,1
2,5,1,57,1,name,2,2,878,1
2,5,1,58,1,name,2,2,909,1
2,5,1,59,1,name,1,1,893,1
2,5,1,60,1,name,1,1,1105.999999999971,1
2,5,1,61,3,both,1,1,828,1
2,5,1,62,3,both,1,1,1698,1
2,5,1,63,3,both,2,2,724,1
2,5,1,64,3,both,2,2,1259,1
2,5,1,65,3,both,1,1,1001,1
2,5,1,66,3,both,2,2,1146,1
2,5,1,67,3,both,2,2,1349,1
2,5,1,68,3,both,2,2,1314.999999999971,1
2,5,1,69,3,both,1,2,1789,0
2,5,1,70,3,both,1,1,588.9999999999709,1
2,5,1,71,4,none,2,2,1167,1
2,5,1,72,4,none,1,1,914,1
2,5,1,73,4,none,1,1,1451,1
2,5,1,74,4,none,1,1,805,1
2,5,1,75,4,none,2,2,1640,1
2,5,1,76,4,none,1,1,1331,1
2,5,1,77,4,none,1,1,1969,1
2,5,1,78,4,none,2,2,742.9999999999709,1
2,5,1,79,4,none,2,2,1710.000000000029,1
2,5,1,80,4,none,2,2,1794.9999999999418,1
2,5,2,1,3,both,2,2,1053,1
2,5,2,3,3,both,1,1,818,1
2,5,2,4,3,both,1,1,744,1
2,5,2,5,3,both,1,1,829,1
2,5,2,6,3,both,2,2,912,1
2,5,2,7,3,both,1,1,1675,1
2,5,2,8,3,both,2,2,1428,1
2,5,2,10,3,both,1,1,1376,1
2,5,2,11,4,none,1,1,914,1
2,5,2,12,4,none,2,2,968.9999999999964,1
2,5,2,13,4,none,2,2,1023.0000000000036,1
2,5,2,14,4,none,2,2,1276,1
2,5,2,15,4,none,2,2,1335,1
2,5,2,16,4,none,1,2,2225,0
2,5,2,17,4,none,1,1,848,1
2,5,2,18,4,none,1,1,1728,1
2,5,2,19,4,none,1,2,1863,0
2,5,2,20,4,none,2,2,1032,1
2,5,2,21,2,tie,1,1,1135.9999999999927,1
2,5,2,22,2,tie,2,2,835,1
2,5,2,23,2,tie,2,2,1833,1
2,5,2,24,2,tie,2,2,1295,1
2,5,2,26,2,tie,2,2,761,1
2,5,2,27,2,tie,1,1,1508,1
2,5,2,28,2,tie,2,2,1803,1
2,5,2,29,2,tie,1,1,1180,1
2,5,2,30,2,tie,1,1,2276,1
2,5,2,31,4,none,1,1,1119,1
2,5,2,32,4,none,2,2,893,1
2,5,2,33,4,none,2,2,1605,1
2,5,2,34,4,none,1,1,756,1
2,5,2,35,4,none,1,1,1229.9999999999854,1
2,5,2,36,4,none,1,1,1667.9999999999854,1
2,5,2,37,4,none,1,2,2042,0
2,5,2,38,4,none,2,2,1841,1
2,5,2,39,4,none,2,2,1251,1
2,5,2,40,4,none,2,2,1443,1
2,5,2,41,2,tie,1,1,1329,1
2,5,2,42,2,tie,2,1,1456,0
2,5,2,44,2,tie,1,1,1849,1
2,5,2,45,2,tie,1,1,1087,1
2,5,2,46,2,tie,2,2,1375,1
2,5,2,47,2,tie,2,2,1190,1
2,5,2,48,2,tie,2,2,807,1
2,5,2,49,2,tie,2,2,1765.0000000000146,1
2,5,2,50,2,tie,1,1,2270,1
2,5,2,51,1,name,2,2,1776.999999999971,1
2,5,2,52,1,name,1,1,1146,1
2,5,2,53,1,name,2,2,1414,1
2,5,2,54,1,name,1,1,2006,1
2,5,2,55,1,name,1,1,793,1
2,5,2,56,1,name,1,1,1344,1
2,5,2,57,1,name,1,1,955,1
2,5,2,58,1,name,2,2,1215,1
2,5,2,59,1,name,2,2,1715,1
2,5,2,60,1,name,2,2,1666,1
2,5,2,61,3,both,2,2,1782,1
2,5,2,62,3,both,1,1,1019,1
2,5,2,63,3,both,1,1,1206,1
2,5,2,64,3,both,1,2,1186,0
2,5,2,65,3,both,1,1,871,1
2,5,2,66,3,both,2,2,1231,1
2,5,2,67,3,both,2,2,1295,1
2,5,2,68,3,both,1,1,1426,1
2,5,2,69,3,both,2,2,1571,1
2,5,2,70,3,both,2,2,1351,1
2,5,2,71,1,name,1,1,1277,1
2,5,2,72,1,name,2,2,2416.999999999971,1
2,5,2,73,1,name,1,1,1038,1
2,5,2,74,1,name,2,2,1438,1
2,5,2,75,1,name,1,1,1228,1
2,5,2,76,1,name,1,1,1113,1
2,5,2,77,1,name,2,2,1546,1
2,5,2,78,1,name,1,1,1030.999999999971,1
2,5,2,79,1,name,2,2,1430,1
2,5,2,80,1,name,2,2,1153,1
3,1,1,3,4,none,1,1,2049,1
3,1,1,4,4,none,2,1,1778,0
3,1,1,5,4,none,1,1,1561,1
3,1,1,6,4,none,2,2,1938,1
3,1,1,8,4,none,1,1,1255,1
3,1,1,9,4,none,1,1,987,1
3,1,1,10,4,none,1,1,1005,1
3,1,1,11,3,both,2,2,1294,1
3,1,1,12,3,both,2,2,1862,1
3,1,1,13,3,both,2,2,1544,1
3,1,1,14,3,both,1,1,1229,1
3,1,1,15,3,both,2,1,2194.9999999999927,0
3,1,1,16,3,both,1,1,1147,1
3,1,1,17,3,both,1,1,2261,1
3,1,1,18,3,both,1,2,1631,0
3,1,1,19,3,both,2,2,1280,1
3,1,1,20,3,both,1,1,999,1
3,1,1,21,1,name,2,2,1204,1
3,1,1,22,1,name,1,1,1001,1
3,1,1,23,1,name,2,2,1162,1
3,1,1,24,1,name,2,2,1528.999999999971,1
3,1,1,25,1,name,1,1,954.9999999999709,1
3,1,1,26,1,name,2,2,992,1
3,1,1,27,1,name,1,1,1860,1
3,1,1,28,1,name,1,1,1521,1
3,1,1,29,1,name,1,2,1849,0
3,1,1,30,1,name,2,2,2014.9999999999418,1
3,1,1,31,3,both,1,1,1149,1
3,1,1,32,3,both,1,1,1606,1
3,1,1,33,3,both,2,2,2279,1
3,1,1,34,3,both,2,2,1229,1
3,1,1,35,3,both,2,2,1720,1
3,1,1,36,3,both,2,2,1607,1
3,1,1,37,3,both,1,1,1384,1
3,1,1,38,3,both,1,2,1235,0
3,1,1,39,3,both,1,1,1325,1
3,1,1,40,3,both,2,2,1468,1
3,1,1,41,2,tie,2,2,1913,1
3,1,1,42,2,tie,1,1,1411,1
3,1,1,43,2,tie,1,1,1563,1
3,1,1,44,2,tie,2,2,1531,1
3,1,1,45,2,tie,1,1,2163,1
3,1,1,46,2,tie,1,1,1884,1
3,1,1,47,2,tie,2,2,2467,1
3,1,1,48,2,tie,2,2,1500,1
3,1,1,49,2,tie,1,1,1068,1
3,1,1,50,2,tie,2,2,1292,1
3,1,1,51,4,none,2,1,1379,0
3,1,1,52,4,none,2,2,1129,1
3,1,1,53,4,none,2,1,1414,0
3,1,1,54,4,none,1,1,1222,1
3,1,1,55,4,none,1,1,1080,1
3,1,1,56,4,none,1,1,1317,1
3,1,1,57,4,none,1,1,1409,1
3,1,1,58,4,none,2,2,1602,1
3,1,1,59,4,none,1,1,1454,1
3,1,1,61,2,tie,1,1,1716.9999999999418,1
3,1,1,62,2,tie,2,2,1232,1
3,1,1,63,2,tie,1,1,1469,1
3,1,1,64,2,tie,2,2,1364,1
3,1,1,65,2,tie,2,2,2340.999999999942,1
3,1,1,66,2,tie,2,2,1326,1
3,1,1,67,2,tie,1,1,976,1
3,1,1,68,2,tie,1,1,1532.9999999999418,1
3,1,1,69,2,tie,1,1,1615.9999999999418,1
3,1,1,70,2,tie,2,2,1472,1
3,1,1,71,1,name,2,2,1604,1
3,1,1,72,1,name,1,1,1342,1
3,1,1,73,1,name,2,2,1423,1
3,1,1,74,1,name,1,2,2083,0
3,1,1,75,1,name,2,2,1437,1
3,1,1,76,1,name,1,1,939,1
3,1,1,79,1,name,1,1,775,1
3,1,1,80,1,name,2,2,952.9999999999418,1
3,1,2,2,1,name,1,1,1950.999999999999,1
3,1,2,3,1,name,2,2,1128,1
3,1,2,4,1,name,1,1,1937,1
3,1,2,5,1,name,2,2,1974,1
3,1,2,6,1,name,2,2,1828,1
3,1,2,7,1,name,1,1,1235,1
3,1,2,8,1,name,2,2,1356,1
3,1,2,9,1,name,2,2,1743,1
3,1,2,10,1,name,1,1,1161,1
3,1,2,11,4,none,1,1,1420,1
3,1,2,12,4,none,1,1,1291,1
3,1,2,13,4,none,2,2,2130,1
3,1,2,14,4,none,1,1,1247,1
3,1,2,15,4,none,2,2,1189,1
3,1,2,16,4,none,1,2,1855,0
3,1,2,17,4,none,1,1,855,1
3,1,2,18,4,none,2,2,1012.9999999999927,1
3,1,2,19,4,none,2,2,2085,1
3,1,2,21,1,name,2,1,1710,0
3,1,2,22,1,name,1,1,1024,1
3,1,2,23,1,name,1,1,1668.9999999999927,1
3,1,2,24,1,name,2,2,1908,1
3,1,2,25,1,name,2,2,1779,1
3,1,2,26,1,name,2,2,1707,1
3,1,2,27,1,name,1,2,2309,0
3,1,2,28,1,name,2,1,2037,0
3,1,2,30,1,name,1,1,771,1
3,1,2,31,2,tie,2,2,1038,1
3,1,2,32,2,tie,2,2,1391,1
3,1,2,33,2,tie,1,1,1315.9999999999854,1
3,1,2,34,2,tie,2,1,1480,0
3,1,2,35,2,tie,1,1,2299,1
3,1,2,36,2,tie,2,2,955,1
3,1,2,37,2,tie,1,1,1405,1
3,1,2,38,2,tie,2,2,1539,1
3,1,2,39,2,tie,1,1,1100,1
3,1,2,40,2,tie,1,1,1129,1
3,1,2,41,3,both,2,2,1940,1
3,1,2,42,3,both,2,1,1935.9999999999854,0
3,1,2,44,3,both,2,2,1079.9999999999854,1
3,1,2,45,3,both,1,1,886.9999999999854,1
3,1,2,46,3,both,1,1,1214,1
3,1,2,47,3,both,1,1,1708.0000000000146,1
3,1,2,48,3,both,1,1,1227,1
3,1,2,49,3,both,2,2,1231,1
3,1,2,51,4,none,2,2,1132,1
3,1,2,52,4,none,1,1,599,1
3,1,2,53,4,none,1,1,1713,1
3,1,2,54,4,none,2,2,1065,1
3,1,2,55,4,none,1,2,1571,0
3,1,2,56,4,none,1,1,713,1
3,1,2,57,4,none,2,2,1419,1
3,1,2,58,4,none,2,1,970,0
3,1,2,59,4,none,1,1,788,1
3,1,2,60,4,none,2,2,1464,1
3,1,2,61,3,both,1,1,1055,1
3,1,2,62,3,both,1,1,1641,1
3,1,2,63,3,both,1,1,1595,1
3,1,2,64,3,both,1,1,902,1
3,1,2,65,3,both,2,2,1474,1
3,1,2,66,3,both,1,1,861,1
3,1,2,67,3,both,2,2,983,1
3,1,2,68,3,both,2,1,1570,0
3,1,2,69,3,both,2,2,1323,1
3,1,2,70,3,both,2,2,1844,1
3,1,2,71,2,tie,2,2,1236,1
3,1,2,72,2,tie,2,1,2057,0
3,1,2,73,2,tie,1,1,1107,1
3,1,2,74,2,tie,1,1,851,1
3,1,2,75,2,tie,2,2,973,1
3,1,2,76,2,tie,2,2,1875.999999999971,1
3,1,2,77,2,tie,1,1,770,1
3,1,2,78,2,tie,2,1,1585,0
3,1,2,79,2,tie,1,2,1231,0
3,2,1,1,4,none,1,2,1436,0
3,2,1,2,4,none,1,1,1130,1
3,2,1,3,4,none,1,1,1173,1
3,2,1,4,4,none,1,1,1375,1
3,2,1,5,4,none,2,2,1218,1
3,2,1,6,4,none,2,2,2007,1
3,2,1,7,4,none,1,1,1053,1
3,2,1,8,4,none,2,2,1099,1
3,2,1,9,4,none,2,1,1871,0
3,2,1,10,4,none,2,2,1636,1
3,2,1,11,1,name,2,2,1842.9999999999964,1
3,2,1,12,1,name,2,1,1749,0
3,2,1,13,1,name,2,2,1737,1
3,2,1,14,1,name,1,1,974,1
3,2,1,15,1,name,2,1,1330,0
3,2,1,16,1,name,1,1,1206,1
3,2,1,17,1,name,1,1,1282,1
3,2,1,18,1,name,1,1,922,1
3,2,1,19,1,name,1,1,972,1
3,2,1,20,1,name,2,2,1012,1
3,2,1,21,3,both,2,2,1864,1
3,2,1,22,3,both,2,1,1072,0
3,2,1,23,3,both,1,2,944.0000000000073,0
3,2,1,24,3,both,1,1,1142,1
3,2,1,25,3,both,2,2,1070,1
3,2,1,26,3,both,1,1,1035,1
3,2,1,27,3,both,1,2,938,0
3,2,1,28,3,both,2,2,1003,1
3,2,1,29,3,both,2,2,907,1
3,2,1,30,3,both,1,1,1014,1
3,2,1,31,4,none,2,2,1411,1
3,2,1,32,4,none,1,1,1719,1
3,2,1,33,4,none,1,1,1090,1
3,2,1,34,4,none,1,1,1054,1
3,2,1,35,4,none,1,1,883,1
3,2,1,36,4,none,2,2,1737,1
3,2,1,37,4,none,1,1,862,1
3,2,1,38,4,none,2,2,847,1
3,2,1,39,4,none,2,2,1095,1
3,2,1,40,4,none,2,1,901,0
3,2,1,41,1,name,1,1,1217,1
3,2,1,42,1,name,2,2,1237,1
3,2,1,43,1,name,2,2,1601,1
3,2,1,44,1,name,1,1,896,1
3,2,1,45,1,name,1,1,1120.9999999999854,1
3,2,1,46,1,name,1,1,927,1
3,2,1,47,1,name,1,1,1325,1
3,2,1,48,1,name,2,2,969,1
3,2,1,49,1,name,2,2,1207.999999999971,1
3,2,1,50,1,name,2,2,880,1
3,2,1,51,2,tie,2,2,1438,1
3,2,1,52,2,tie,1,1,968,1
3,2,1,53,2,tie,1,2,2127,0
3,2,1,54,2,tie,1,1,673,1
3,2,1,55,2,tie,2,2,757,1
3,2,1,56,2,tie,2,2,1741,1
3,2,1,57,2,tie,1,1,578,1
3,2,1,58,2,tie,2,2,1231,1
3,2,1,59,2,tie,2,2,985,1
3,2,1,60,2,tie,1,1,1000,1
3,2,1,61,3,both,1,1,1854,1
3,2,1,62,3,both,1,1,1053.999999999971,1
3,2,1,63,3,both,2,2,1131,1
3,2,1,64,3,both,2,1,797.9999999999709,0
3,2,1,65,3,both,1,1,959.9999999999709,1
3,2,1,66,3,both,2,2,1019,1
3,2,1,67,3,both,1,1,854,1
3,2,1,68,3,both,2,2,740,1
3,2,1,69,3,both,1,1,587,1
3,2,1,70,3,both,2,2,691,1
3,2,1,71,2,tie,1,1,629,1
3,2,1,73,2,tie,2,2,922,1
3,2,1,74,2,tie,2,2,1216,1
3,2,1,75,2,tie,2,2,1424,1
3,2,1,76,2,tie,1,1,820,1
3,2,1,77,2,tie,1,1,652,1
3,2,1,78,2,tie,1,1,627,1
3,2,1,79,2,tie,2,2,876,1
3,2,1,80,2,tie,2,2,1332,1
3,3,1,1,2,tie,2,2,1053,1
3,3,1,2,2,tie,1,1,1062,1
3,3,1,3,2,tie,1,1,876,1
3,3,1,4,2,tie,1,1,751,1
3,3,1,5,2,tie,2,2,1446,1
3,3,1,6,2,tie,2,2,968,1
3,3,1,7,2,tie,2,2,721,1
3,3,1,8,2,tie,1,1,1313,1
3,3,1,9,2,tie,2,2,1077,1
3,3,1,10,2,tie,1,1,845,1
3,3,1,11,3,both,2,2,1483,1
3,3,1,12,3,both,1,1,653,1
3,3,1,13,3,both,1,1,1281,1
3,3,1,14,3,both,1,2,1044,0
3,3,1,15,3,both,2,2,1083,1
3,3,1,16,3,both,2,2,893.9999999999927,1
3,3,1,17,3,both,1,1,992,1
3,3,1,18,3,both,2,2,1300,1
3,3,1,19,3,both,2,2,1000,1
3,3,1,20,3,both,1,1,1000,1
3,3,1,21,4,none,1,1,1079,1
3,3,1,22,4,none,2,2,914,1
3,3,1,23,4,none,1,1,831.9999999999927,1
3,3,1,24,4,none,1,1,998.9999999999927,1
3,3,1,25,4,none,2,1,2125,0
3,3,1,26,4,none,2,1,2156,0
3,3,1,27,4,none,2,2,624,1
3,3,1,28,4,none,1,2,2024,0
3,3,1,29,4,none,2,2,2064,1
3,3,1,31,3,both,1,1,754,1
3,3,1,32,3,both,2,2,1439.9999999999854,1
3,3,1,33,3,both,2,2,1763,1
3,3,1,34,3,both,2,2,1730,1
3,3,1,35,3,both,1,1,864,1
3,3,1,36,3,both,2,2,920,1
3,3,1,37,3,both,2,2,1476,1
3,3,1,38,3,both,1,1,1138,1
3,3,1,39,3,both,1,1,1528,1
3,3,1,40,3,both,1,1,964,1
3,3,1,41,2,tie,2,2,1843,1
3,3,1,42,2,tie,1,1,1317,1
3,3,1,43,2,tie,1,1,1279,1
3,3,1,44,2,tie,1,1,1421,1
3,3,1,45,2,tie,1,2,1782,0
3,3,1,46,2,tie,2,2,1050,1
3,3,1,47,2,tie,2,2,1280,1
3,3,1,48,2,tie,1,1,1439.9999999999854,1
3,3,1,49,2,tie,2,2,1185,1
3,3,1,50,2,tie,2,2,1260,1
3,3,1,51,1,name,2,2,1013,1
3,3,1,52,1,name,1,1,1119,1
3,3,1,53,1,name,2,2,1417,1
3,3,1,54,1,name,1,1,1223,1
3,3,1,55,1,name,1,2,1346,0
3,3,1,56,1,name,2,1,1210,0
3,3,1,57,1,name,1,1,1422,1
3,3,1,58,1,name,2,2,1607,1
3,3,1,59,1,name,2,2,1623,1
3,3,1,60,1,name,1,1,2076,1
3,3,1,62,4,none,2,2,1005,1
3,3,1,63,4,none,2,1,2497,0
3,3,1,64,4,none,2,2,926,1
3,3,1,65,4,none,1,1,1897,1
3,3,1,66,4,none,1,1,1232,1
3,3,1,67,4,none,1,1,904,1
3,3,1,68,4,none,1,1,1109,1
3,3,1,69,4,none,2,2,1449,1
3,3,1,70,4,none,1,2,2251.999999999971,0
3,3,1,71,1,name,2,2,1682,1
3,3,1,72,1,name,1,1,1287,1
3,3,1,73,1,name,1,1,1229,1
3,3,1,74,1,name,1,1,1208,1
3,3,1,75,1,name,1,1,1098,1
3,3,1,76,1,name,2,2,1666,1
3,3,1,77,1,name,2,1,1332,0
3,3,1,78,1,name,1,1,1194,1
3,3,1,79,1,name,2,2,973,1
3,3,1,80,1,name,2,2,848.9999999999709,1
3,3,2,1,1,name,2,2,1859,1
3,3,2,2,1,name,1,1,1287,1
3,3,2,3,1,name,2,2,1783,1
3,3,2,4,1,name,1,1,1809,1
3,3,2,5,1,name,2,1,1651,0
3,3,2,6,1,name,1,2,1189,0
3,3,2,7,1,name,2,2,1045.9999999999964,1
3,3,2,8,1,name,1,1,768,1
3,3,2,9,1,name,1,1,754,1
3,3,2,10,1,name,2,2,1096,1
3,3,2,11,3,both,1,2,932,0
3,3,2,13,3,both,1,1,1818,1
3,3,2,14,3,both,2,2,1322,1
3,3,2,15,3,both,1,1,1786,1
3,3,2,16,3,both,1,1,1549,1
3,3,2,17,3,both,1,1,2224,1
3,3,2,18,3,both,2,2,1050,1
3,3,2,19,3,both,2,2,1510,1
3,3,2,20,3,both,2,2,976,1
3,3,2,21,4,none,1,1,2261,1
3,3,2,23,4,none,1,1,2061,1
3,3,2,24,4,none,2,2,949,1
3,3,2,25,4,none,2,2,1793,1
3,3,2,26,4,none,2,2,1245,1
3,3,2,27,4,none,2,2,858,1
3,3,2,28,4,none,2,2,1845,1
3,3,2,29,4,none,1,1,1014,1
3,3,2,30,4,none,1,2,1154.9999999999854,0
3,3,2,31,2,tie,1,1,789,1
3,3,2,32,2,tie,1,1,1011,1
3,3,2,33,2,tie,2,2,1674,1
3,3,2,34,2,tie,2,1,1933,0
3,3,2,35,2,tie,1,1,899,1
3,3,2,36,2,tie,2,2,1383,1
3,3,2,37,2,tie,1,1,755,1
3,3,2,38,2,tie,2,2,2036,1
3,3,2,39,2,tie,2,2,852,1
3,3,2,40,2,tie,1,1,1029,1
3,3,2,41,3,both,1,1,1300,1
3,3,2,42,3,both,2,2,1935,1
3,3,2,43,3,both,2,2,1089,1
3,3,2,44,3,both,1,2,1325.9999999999854,0
3,3,2,45,3,both,1,1,1298,1
3,3,2,46,3,both,2,2,1577,1
3,3,2,47,3,both,2,1,1904.9999999999854,0
3,3,2,49,3,both,2,2,805,1
3,3,2,50,3,both,1,2,1341,0
3,3,2,51,1,name,1,1,2084,1
3,3,2,52,1,name,1,1,1255,1
3,3,2,53,1,name,1,1,1573,1
3,3,2,54,1,name,2,2,741,1
3,3,2,55,1,name,1,1,1372,1
3,3,2,56,1,name,1,1,1871.999999999971,1
3,3,2,57,1,name,2,2,1975,1
3,3,2,58,1,name,2,2,893,1
3,3,2,59,1,name,2,2,967.9999999999709,1
3,3,2,60,1,name,2,1,2153,0
3,3,2,61,2,tie,2,2,1678,1
3,3,2,62,2,tie,1,1,919,1
3,3,2,63,2,tie,2,2,1090,1
3,3,2,64,2,tie,2,2,894,1
3,3,2,65,2,tie,1,1,764,1
3,3,2,66,2,tie,1,2,1615,0
3,3,2,67,2,tie,2,2,1032,1
3,3,2,68,2,tie,1,2,1226,0
3,3,2,69,2,tie,1,1,757,1
3,3,2,70,2,tie,2,2,993.9999999999709,1
3,3,2,71,4,none,2,2,1445,1
3,3,2,72,4,none,2,2,1710,1
3,3,2,73,4,none,2,2,1333,1
3,3,2,74,4,none,1,2,1213,0
3,3,2,75,4,none,1,1,610,1
3,3,2,76,4,none,2,2,655,1
3,3,2,77,4,none,1,1,1174,1
3,3,2,78,4,none,1,1,819,1
3,3,2,79,4,none,1,1,1038,1
3,3,2,80,4,none,2,2,1280,1
3,4,1,1,1,name,1,2,1887.9999999999995,0
3,4,1,2,1,name,2,2,949,1
3,4,1,3,1,name,2,2,1027.999999999999,1
3,4,1,4,1,name,2,2,983,1
3,4,1,5,1,name,1,1,772,1
3,4,1,6,1,name,2,2,965,1
3,4,1,7,1,name,2,2,845,1
3,4,1,8,1,name,1,2,2015,0
3,4,1,9,1,name,1,2,1812,0
3,4,1,10,1,name,1,1,1370,1
3,4,1,11,3,both,2,2,744,1
3,4,1,12,3,both,2,2,1168,1
3,4,1,13,3,both,1,1,1704,1
3,4,1,14,3,both,1,1,1108,1
3,4,1,15,3,both,2,2,1085,1
3,4,1,16,3,both,2,2,1733,1
3,4,1,17,3,both,1,1,1232,1
3,4,1,18,3,both,1,1,1273,1
3,4,1,19,3,both,2,2,902,1
3,4,1,20,3,both,1,1,859,1
3,4,1,21,1,name,2,2,1576.9999999999927,1
3,4,1,22,1,name,1,1,985,1
3,4,1,23,1,name,2,2,635,1
3,4,1,24,1,name,2,2,1115,1
3,4,1,25,1,name,1,2,941,0
3,4,1,26,1,name,1,1,825,1
3,4,1,27,1,name,2,2,821,1
3,4,1,28,1,name,1,1,1156.9999999999854,1
3,4,1,29,1,name,1,1,857,1
3,4,1,30,1,name,2,2,637,1
3,4,1,31,2,tie,2,1,1766,0
3,4,1,32,2,tie,1,1,1186,1
3,4,1,33,2,tie,1,2,1708,0
3,4,1,34,2,tie,1,1,723.9999999999854,1
3,4,1,35,2,tie,2,1,1849,0
3,4,1,36,2,tie,1,2,1489,0
3,4,1,37,2,tie,2,2,1573.9999999999854,1
3,4,1,38,2,tie,2,2,1930.9999999999854,1
3,4,1,39,2,tie,2,1,1874,0
3,4,1,40,2,tie,1,1,1151,1
3,4,1,41,4,none,2,1,1151,0
3,4,1,42,4,none,1,1,1172,1
3,4,1,43,4,none,1,1,1059,1
3,4,1,44,4,none,2,2,1067,1
3,4,1,45,4,none,2,2,1352,1
3,4,1,46,4,none,2,2,1592,1
3,4,1,47,4,none,1,1,1282.9999999999854,1
3,4,1,48,4,none,2,2,1322,1
3,4,1,49,4,none,1,2,1219.9999999999854,0
3,4,1,50,4,none,1,1,1240,1
3,4,1,51,3,both,1,1,1573,1
3,4,1,52,3,both,2,1,1758.999999999971,0
3,4,1,55,3,both,1,1,596.9999999999709,1
3,4,1,56,3,both,2,2,685,1
3,4,1,57,3,both,2,2,860,1
3,4,1,58,3,both,2,2,817,1
3,4,1,59,3,both,2,2,757,1
3,4,1,60,3,both,1,1,1096,1
3,4,1,61,2,tie,2,2,1527.999999999971,1
3,4,1,62,2,tie,1,1,1284,1
3,4,1,63,2,tie,2,2,1584,1
3,4,1,64,2,tie,1,1,909,1
3,4,1,65,2,tie,1,1,1829,1
3,4,1,66,2,tie,1,1,953,1
3,4,1,67,2,tie,2,2,814,1
3,4,1,68,2,tie,2,2,1391,1
3,4,1,69,2,tie,1,1,1222,1
3,4,1,70,2,tie,2,2,1487,1
3,4,1,71,4,none,2,2,1636,1
3,4,1,72,4,none,1,1,975,1
3,4,1,74,4,none,1,1,994,1
3,4,1,77,4,none,1,1,1570,1
3,4,1,78,4,none,1,1,1506,1
3,4,1,79,4,none,2,2,1074,1
3,4,1,80,4,none,2,2,1320,1
3,4,2,1,1,name,1,1,2174,1
3,4,2,2,1,name,1,2,1685,0
3,4,2,3,1,name,2,2,1643,1
3,4,2,4,1,name,1,1,1164,1
3,4,2,5,1,name,1,1,1289,1
3,4,2,6,1,name,2,2,1084.9999999999982,1
3,4,2,8,1,name,2,2,769,1
3,4,2,9,1,name,2,2,657,1
3,4,2,10,1,name,1,2,1057,0
3,4,2,11,2,tie,1,2,1060,0
3,4,2,12,2,tie,2,1,1740,0
3,4,2,13,2,tie,2,2,839,1
3,4,2,14,2,tie,1,1,638,1
3,4,2,15,2,tie,2,1,1577,0
3,4,2,16,2,tie,1,1,1609,1
3,4,2,17,2,tie,2,2,2084.9999999999927,1
3,4,2,18,2,tie,2,2,924,1
3,4,2,19,2,tie,1,2,1584.9999999999927,0
3,4,2,20,2,tie,1,1,1448,1
3,4,2,21,3,both,2,2,988,1
3,4,2,22,3,both,1,1,2011.9999999999927,1
3,4,2,23,3,both,1,1,1054,1
3,4,2,24,3,both,1,1,1648,1
3,4,2,25,3,both,2,2,898,1
3,4,2,26,3,both,2,2,1446,1
3,4,2,27,3,both,1,1,1202,1
3,4,2,28,3,both,1,1,1470,1
3,4,2,29,3,both,2,2,1139,1
3,4,2,30,3,both,2,1,1620,0
3,4,2,31,4,none,1,2,1159,0
3,4,2,32,4,none,1,1,1210,1
3,4,2,33,4,none,1,1,1203,1
3,4,2,34,4,none,2,2,1238,1
3,4,2,35,4,none,2,2,1746,1
3,4,2,36,4,none,1,1,1129,1
3,4,2,37,4,none,2,2,1012,1
3,4,2,38,4,none,2,1,1548,0
3,4,2,39,4,none,2,2,760,1
3,4,2,40,4,none,1,1,1165,1
3,4,2,41,1,name,1,1,1319,1
3,4,2,42,1,name,1,1,1286,1
3,4,2,43,1,name,2,2,1139,1
3,4,2,44,1,name,1,1,859,1
3,4,2,45,1,name,1,2,1296,0
3,4,2,46,1,name,2,2,857,1
3,4,2,47,1,name,1,1,722,1
3,4,2,48,1,name,2,2,679.9999999999854,1
3,4,2,49,1,name,2,2,1042,1
3,4,2,50,1,name,2,2,1699,1
3,4,2,51,2,tie,2,2,948.9999999999709,1
3,4,2,52,2,tie,2,2,1962,1
3,4,2,54,2,tie,1,2,975,0
3,4,2,55,2,tie,2,2,849,1
3,4,2,56,2,tie,1,1,1220,1
3,4,2,57,2,tie,2,2,1156,1
3,4,2,59,2,tie,1,1,1823,1
3,4,2,60,2,tie,2,2,677.9999999999709,1
3,4,2,61,3,both,1,1,1252,1
3,4,2,62,3,both,2,2,679,1
3,4,2,63,3,both,1,1,836,1
3,4,2,64,3,both,1,2,1472,0
3,4,2,65,3,both,2,2,1468,1
3,4,2,66,3,both,1,2,2025,0
3,4,2,67,3,both,1,1,1283,1
3,4,2,68,3,both,2,2,1562,1
3,4,2,69,3,both,2,2,730,1
3,4,2,70,3,both,2,2,1386,1
3,4,2,71,4,none,1,1,1108,1
3,4,2,72,4,none,1,1,1472.999999999971,1
3,4,2,73,4,none,1,1,760,1
3,4,2,74,4,none,2,2,791,1
3,4,2,75,4,none,2,2,853.9999999999709,1
3,4,2,76,4,none,2,2,1208,1
3,4,2,77,4,none,1,1,1150.999999999971,1
3,4,2,78,4,none,2,2,1414,1
3,4,2,79,4,none,2,2,1390,1
3,4,2,80,4,none,1,2,1303,0
3,5,1,1,1,name,2,2,965,1
3,5,1,2,1,name,1,1,702.9999999999991,1
3,5,1,3,1,name,2,2,786,1
3,5,1,4,1,name,2,2,783,1
3,5,1,5,1,name,1,1,2092,1
3,5,1,6,1,name,1,1,993,1
3,5,1,7,1,name,2,2,787,1
3,5,1,8,1,name,1,1,1288,1
3,5,1,9,1,name,1,2,1610,0
3,5,1,10,1,name,2,2,625.9999999999964,1
3,5,1,11,3,both,2,2,696,1
3,5,1,12,3,both,2,2,1698,1
3,5,1,13,3,both,1,1,1049,1
3,5,1,14,3,both,2,2,1097,1
3,5,1,15,3,both,1,1,797,1
3,5,1,16,3,both,1,2,1233,0
3,5,1,17,3,both,1,1,1034,1
3,5,1,18,3,both,2,2,898,1
3,5,1,19,3,both,2,2,1459,1
3,5,1,20,3,both,1,1,1277.9999999999927,1
3,5,1,21,1,name,1,2,1487,0
3,5,1,22,1,name,2,2,752,1
3,5,1,23,1,name,2,2,688,1
3,5,1,24,1,name,2,2,617,1
3,5,1,25,1,name,1,1,1857,1
3,5,1,26,1,name,2,2,742,1
3,5,1,27,1,name,1,1,800,1
3,5,1,28,1,name,1,2,1622.9999999999854,0
3,5,1,29,1,name,2,2,720,1
3,5,1,30,1,name,1,1,1557,1
3,5,1,31,2,tie,1,1,857,1
3,5,1,32,2,tie,2,2,1128,1
3,5,1,33,2,tie,1,1,1881,1
3,5,1,34,2,tie,2,2,1298,1
3,5,1,35,2,tie,1,1,1472,1
3,5,1,36,2,tie,2,2,1024,1
3,5,1,37,2,tie,2,2,1174,1
3,5,1,38,2,tie,1,1,1833,1
3,5,1,39,2,tie,1,2,1333.9999999999854,0
3,5,1,40,2,tie,2,2,945,1
3,5,1,42,4,none,2,2,1547,1
3,5,1,43,4,none,2,2,994,1
3,5,1,44,4,none,1,1,1207,1
3,5,1,45,4,none,2,1,1013,0
3,5,1,46,4,none,1,1,776,1
3,5,1,47,4,none,2,2,627.0000000000146,1
3,5,1,48,4,none,1,1,1559,1
3,5,1,49,4,none,2,2,1222,1
3,5,1,50,4,none,1,1,1184.999999999971,1
3,5,1,51,3,both,1,1,1207,1
3,5,1,52,3,both,1,1,1016,1
3,5,1,53,3,both,2,2,989,1
3,5,1,54,3,both,1,1,1150,1
3,5,1,55,3,both,1,1,1343,1
3,5,1,56,3,both,1,2,1863,0
3,5,1,57,3,both,2,2,1216,1
3,5,1,58,3,both,2,2,1712,1
3,5,1,59,3,both,2,2,1333,1
3,5,1,60,3,both,2,2,1650,1
3,5,1,61,4,none,1,1,1113,1
3,5,1,62,4,none,1,1,1019,1
3,5,1,64,4,none,2,1,988,0
3,5,1,65,4,none,2,2,1069,1
3,5,1,66,4,none,2,2,869,1
3,5,1,67,4,none,2,2,1332,1
3,5,1,68,4,none,2,1,1994,0
3,5,1,69,4,none,1,1,1557.999999999971,1
3,5,1,70,4,none,1,1,1412,1
3,5,1,71,2,tie,1,1,1137,1
3,5,1,72,2,tie,2,2,973,1
3,5,1,73,2,tie,1,1,863,1
3,5,1,75,2,tie,2,2,1537,1
3,5,1,76,2,tie,1,1,1269,1
3,5,1,77,2,tie,2,2,1129.999999999971,1
3,5,1,78,2,tie,2,2,1407,1
3,5,1,79,2,tie,1,2,1588,0
3,5,1,80,2,tie,2,2,988,1
4,1,1,1,1,name,1,1,1783,1
4,1,1,2,1,name,1,2,1910,0
4,1,1,3,1,name,2,2,2246,1
4,1,1,4,1,name,1,1,1455.9999999999982,1
4,1,1,5,1,name,1,1,1879,1
4,1,1,6,1,name,2,2,2232,1
4,1,1,7,1,name,2,2,1918,1
4,1,1,8,1,name,2,2,1910,1
4,1,1,9,1,name,2,2,1863,1
4,1,1,10,1,name,1,1,1840,1
4,1,1,11,2,tie,1,1,1370,1
4,1,1,12,2,tie,2,2,1737,1
4,1,1,13,2,tie,2,2,1938,1
4,1,1,14,2,tie,1,1,1375,1
4,1,1,15,2,tie,2,1,1342,0
4,1,1,16,2,tie,1,1,1444,1
4,1,1,17,2,tie,2,2,1510,1
4,1,1,18,2,tie,2,2,1776,1
4,1,1,19,2,tie,1,1,1380,1
4,1,1,20,2,tie,1,1,1388.9999999999927,1
4,1,1,21,3,both,2,2,1681,1
4,1,1,22,3,both,1,1,1588.9999999999854,1
4,1,1,23,3,both,1,1,1409,1
4,1,1,24,3,both,1,1,1619,1
4,1,1,25,3,both,2,2,1442,1
4,1,1,26,3,both,2,2,1984,1
4,1,1,27,3,both,1,1,1346,1
4,1,1,28,3,both,1,1,1853.9999999999854,1
4,1,1,29,3,both,2,2,1732,1
4,1,1,30,3,both,2,1,1285,0
4,1,1,31,4,none,1,2,2273,0
4,1,1,32,4,none,1,1,1610,1
4,1,1,33,4,none,1,1,1137,1
4,1,1,34,4,none,2,2,1392,1
4,1,1,35,4,none,2,1,2033,0
4,1,1,36,4,none,1,1,2128,1
4,1,1,37,4,none,2,2,1405,1
4,1,1,38,4,none,2,2,1710.9999999999854,1
4,1,1,39,4,none,2,2,1526,1
4,1,1,40,4,none,1,1,1466,1
4,1,1,41,1,name,1,1,1916,1
4,1,1,42,1,name,1,1,1553.0000000000146,1
4,1,1,43,1,name,2,1,1951,0
4,1,1,44,1,name,1,1,1711,1
4,1,1,45,1,name,1,2,1358.999999999971,0
4,1,1,46,1,name,2,2,1209,1
4,1,1,47,1,name,1,1,1021.9999999999709,1
4,1,1,48,1,name,2,2,1335,1
4,1,1,49,1,name,2,2,1577,1
4,1,1,50,1,name,2,2,1992,1
4,1,1,51,2,tie,2,2,1909,1
4,1,1,52,2,tie,2,2,1786,1
4,1,1,53,2,tie,1,1,1240,1
4,1,1,54,2,tie,1,1,1455,1
4,1,1,55,2,tie,2,2,1482,1
4,1,1,56,2,tie,1,1,1407,1
4,1,1,57,2,tie,2,2,2181,1
4,1,1,58,2,tie,1,1,2050,1
4,1,1,59,2,tie,1,1,1558,1
4,1,1,60,2,tie,2,2,1777,1
4,1,1,61,3,both,1,1,1618,1
4,1,1,62,3,both,2,2,1330,1
4,1,1,63,3,both,1,1,1105,1
4,1,1,64,3,both,1,1,1396,1
4,1,1,65,3,both,2,2,1865.999999999971,1
4,1,1,66,3,both,1,2,1633,0
4,1,1,67,3,both,1,1,1687,1
4,1,1,68,3,both,2,2,2102,1
4,1,1,69,3,both,2,2,1636,1
4,1,1,70,3,both,2,2,1310,1
4,1,1,71,4,none,1,1,1270,1
4,1,1,72,4,none,1,1,1948,1
4,1,1,73,4,none,1,1,1453,1
4,1,1,74,4,none,2,2,1108.999999999971,1
4,1,1,75,4,none,2,2,1090,1
4,1,1,76,4,none,2,2,899,1
4,1,1,77,4,none,1,1,1080,1
4,1,1,78,4,none,2,2,1151,1
4,1,1,79,4,none,2,2,1410,1
4,1,1,80,4,none,1,1,1565,1
4,1,2,1,4,none,1,2,2322,0
4,1,2,2,4,none,2,2,1046,1
4,1,2,3,4,none,2,2,1635,1
4,1,2,4,4,none,1,1,1754,1
4,1,2,5,4,none,2,2,1119,1
4,1,2,6,4,none,1,1,1572,1
4,1,2,7,4,none,1,1,1904,1
4,1,2,8,4,none,1,2,1948,0
4,1,2,9,4,none,2,2,1147,1
4,1,2,10,4,none,2,2,1085,1
4,1,2,11,1,name,1,1,1763.9999999999964,1
4,1,2,12,1,name,2,2,1343,1
4,1,2,13,1,name,2,1,1267,0
4,1,2,14,1,name,1,1,1862.9999999999927,1
4,1,2,15,1,name,1,1,1652,1
4,1,2,16,1,name,1,1,1174,1
4,1,2,17,1,name,2,2,1178,1
4,1,2,18,1,name,1,1,1736,1
4,1,2,19,1,name,2,2,1643,1
4,1,2,20,1,name,2,2,1309.9999999999927,1
4,1,2,21,2,tie,2,1,2317,0
4,1,2,22,2,tie,1,1,1591,1
4,1,2,23,2,tie,1,1,1115,1
4,1,2,24,2,tie,1,1,903.9999999999854,1
4,1,2,25,2,tie,2,2,1131,1
4,1,2,26,2,tie,2,2,1165,1
4,1,2,27,2,tie,2,1,1226,0
4,1,2,28,2,tie,1,1,1746,1
4,1,2,30,2,tie,2,2,1268,1
4,1,2,31,4,none,1,1,1561,1
4,1,2,32,4,none,2,1,1758.9999999999854,0
4,1,2,33,4,none,1,1,1382,1
4,1,2,34,4,none,1,1,1219,1
4,1,2,35,4,none,1,1,1893,1
4,1,2,36,4,none,2,2,1199,1
4,1,2,37,4,none,1,1,1266,1
4,1,2,38,4,none,2,2,1354,1
4,1,2,39,4,none,2,2,1206,1
4,1,2,40,4,none,2,2,1096,1
4,1,2,41,3,both,2,2,1487,1
4,1,2,42,3,both,1,1,1128,1
4,1,2,43,3,both,1,1,1700,1
4,1,2,44,3,both,1,2,1652,0
4,1,2,45,3,both,2,2,1151,1
4,1,2,46,3,both,1,2,1559,0
4,1,2,47,3,both,2,2,1207,1
4,1,2,48,3,both,2,2,1134,1
4,1,2,49,3,both,2,2,960,1
4,1,2,50,3,both,1,1,855.9999999999709,1
4,1,2,51,1,name,1,1,1141,1
4,1,2,52,1,name,1,1,922.9999999999709,1
4,1,2,53,1,name,1,1,1071,1
4,1,2,54,1,name,2,1,1306,0
4,1,2,55,1,name,2,2,1515,1
4,1,2,56,1,name,2,2,1119,1
4,1,2,57,1,name,2,1,1082,0
4,1,2,58,1,name,2,2,1802,1
4,1,2,59,1,name,1,1,979,1
4,1,2,60,1,name,1,1,1213,1
4,1,2,62,3,both,1,1,1028,1
4,1,2,63,3,both,1,1,1339,1
4,1,2,64,3,both,2,2,1036,1
4,1,2,65,3,both,1,2,1159,0
4,1,2,66,3,both,2,2,935,1
4,1,2,67,3,both,2,1,1056,0
4,1,2,68,3,both,1,1,842,1
4,1,2,69,3,both,2,2,857,1
4,1,2,70,3,both,1,1,921,1
4,1,2,71,2,tie,2,2,1164,1
4,1,2,72,2,tie,2,2,1257.999999999971,1
4,1,2,73,2,tie,1,1,1331,1
4,1,2,74,2,tie,1,1,798,1
4,1,2,75,2,tie,1,1,877.9999999999709,1
4,1,2,76,2,tie,2,2,1499,1
4,1,2,77,2,tie,2,2,1029,1
4,1,2,78,2,tie,2,2,1082,1
4,1,2,79,2,tie,1,1,994.9999999999709,1
4,1,2,80,2,tie,1,1,1235,1
4,2,1,1,3,both,1,1,1400,1
4,2,1,2,3,both,1,2,1521,0
4,2,1,3,3,both,1,1,968,1
4,2,1,4,3,both,2,2,907,1
4,2,1,5,3,both,2,2,1106,1
4,2,1,6,3,both,2,2,1379,1
4,2,1,7,3,both,2,2,1485.9999999999964,1
4,2,1,8,3,both,2,2,1319,1
4,2,1,9,3,both,1,1,951,1
4,2,1,10,3,both,1,2,1177,0
4,2,1,11,2,tie,2,2,1051,1
4,2,1,12,2,tie,2,2,826,1
4,2,1,13,2,tie,2,2,1035,1
4,2,1,14,2,tie,2,1,1905,0
4,2,1,15,2,tie,1,1,1359,1
4,2,1,16,2,tie,1,1,1391,1
4,2,1,17,2,tie,1,1,1283,1
4,2,1,18,2,tie,1,1,1087,1
4,2,1,19,2,tie,1,1,1333,1
4,2,1,20,2,tie,2,2,983,1
4,2,1,21,1,name,1,1,1323,1
4,2,1,22,1,name,2,2,986,1
4,2,1,23,1,name,1,1,1106,1
4,2,1,24,1,name,1,1,1020,1
4,2,1,25,1,name,2,2,1142,1
4,2,1,26,1,name,2,2,948,1
4,2,1,27,1,name,2,2,1370,1
4,2,1,28,1,name,2,2,1909,1
4,2,1,29,1,name,1,1,1566,1
4,2,1,30,1,name,1,1,834,1
4,2,1,31,2,tie,2,2,1020,1
4,2,1,32,2,tie,2,2,905,1
4,2,1,33,2,tie,2,2,798,1
4,2,1,34,2,tie,1,1,803,1
4,2,1,35,2,tie,1,1,1042.9999999999854,1
4,2,1,36,2,tie,1,1,1606,1
4,2,1,37,2,tie,2,2,1607,1
4,2,1,38,2,tie,2,2,1037,1
4,2,1,39,2,tie,1,1,1598,1
4,2,1,40,2,tie,1,1,1445,1
4,2,1,41,3,both,2,2,1293,1
4,2,1,42,3,both,2,2,1061,1
4,2,1,43,3,both,2,2,1035,1
4,2,1,44,3,both,1,1,972,1
4,2,1,45,3,both,1,1,1426,1
4,2,1,46,3,both,1,1,1608,1
4,2,1,47,3,both,1,1,713,1
4,2,1,48,3,both,1,1,1618,1
4,2,1,49,3,both,2,2,1082,1
4,2,1,50,3,both,2,2,1373,1
4,2,1,51,4,none,1,1,755,1
4,2,1,52,4,none,1,1,1180,1
4,2,1,53,4,none,1,1,1212,1
4,2,1,54,4,none,2,1,1438.999999999971,0
4,2,1,55,4,none,1,1,825,1
4,2,1,56,4,none,2,2,1588,1
4,2,1,57,4,none,2,2,1228,1
4,2,1,58,4,none,2,2,750.9999999999709,1
4,2,1,59,4,none,2,2,1042,1
4,2,1,60,4,none,1,1,1086,1
4,2,1,61,1,name,1,1,1195,1
4,2,1,62,1,name,2,2,1070,1
4,2,1,63,1,name,1,1,900.9999999999709,1
4,2,1,64,1,name,2,1,1690,0
4,2,1,65,1,name,2,1,1277,0
4,2,1,66,1,name,1,1,900,1
4,2,1,67,1,name,2,2,956,1
4,2,1,68,1,name,1,1,692,1
4,2,1,69,1,name,1,1,763,1
4,2,1,70,1,name,2,2,784,1
4,2,1,71,4,none,2,2,887,1
4,2,1,72,4,none,2,2,721,1
4,2,1,73,4,none,1,1,916,1
4,2,1,74,4,none,1,1,827,1
4,2,1,75,4,none,1,1,1023,1
4,2,1,76,4,none,2,2,823,1
4,2,1,77,4,none,2,2,794,1
4,2,1,78,4,none,1,1,816,1
4,2,1,79,4,none,2,1,803,0
4,2,1,80,4,none,1,1,775,1
4,2,2,1,1,name,1,1,1643,1
4,2,2,2,1,name,1,1,1405,1
4,2,2,3,1,name,2,2,2246,1
4,2,2,4,1,name,2,2,1107,1
4,2,2,5,1,name,1,1,1055,1
4,2,2,6,1,name,2,2,1652,1
4,2,2,7,1,name,1,1,868,1
4,2,2,8,1,name,2,2,1168,1
4,2,2,9,1,name,1,1,1792.9999999999964,1
4,2,2,10,1,name,2,2,1034,1
4,2,2,11,2,tie,2,2,2474,1
4,2,2,12,2,tie,1,1,890,1
4,2,2,13,2,tie,1,1,1260,1
4,2,2,14,2,tie,1,1,1254,1
4,2,2,15,2,tie,2,2,1671,1
4,2,2,16,2,tie,2,2,1530,1
4,2,2,17,2,tie,1,1,1459,1
4,2,2,18,2,tie,2,2,1737,1
4,2,2,19,2,tie,1,1,1503.9999999999927,1
4,2,2,20,2,tie,2,2,2168,1
4,2,2,21,3,both,1,1,1259,1
4,2,2,22,3,both,2,2,1341,1
4,2,2,23,3,both,2,2,870,1
4,2,2,24,3,both,1,1,1128,1
4,2,2,25,3,both,1,1,668,1
4,2,2,26,3,both,1,2,1069,0
4,2,2,27,3,both,2,2,858,1
4,2,2,28,3,both,2,2,873,1
4,2,2,29,3,both,2,2,1209.9999999999854,1
4,2,2,30,3,both,1,1,1063,1
4,2,2,31,4,none,1,1,1520,1
4,2,2,32,4,none,2,2,1928,1
4,2,2,33,4,none,2,2,885,1
4,2,2,34,4,none,1,1,1774,1
4,2,2,35,4,none,1,1,1588,1
4,2,2,36,4,none,1,1,998,1
4,2,2,37,4,none,2,2,1042,1
4,2,2,38,4,none,2,2,1129,1
4,2,2,39,4,none,1,2,880,0
4,2,2,40,4,none,2,2,911.9999999999854,1
4,2,2,41,3,both,2,2,1776.9999999999854,1
4,2,2,42,3,both,1,1,812,1
4,2,2,43,3,both,1,1,1540,1
4,2,2,44,3,both,1,1,1616,1
4,2,2,45,3,both,1,1,1593,1
4,2,2,46,3,both,1,1,1118,1
4,2,2,47,3,both,2,2,974,1
4,2,2,48,3,both,2,2,1191,1
4,2,2,49,3,both,2,2,1611,1
4,2,2,50,3,both,2,2,969,1
4,2,2,51,1,name,1,2,1686,0
4,2,2,52,1,name,1,1,848,1
4,2,2,53,1,name,2,2,1474,1
4,2,2,54,1,name,2,2,1237,1
4,2,2,55,1,name,1,1,866,1
4,2,2,56,1,name,1,1,1181,1
4,2,2,57,1,name,2,2,1173,1
4,2,2,58,1,name,2,2,965,1
4,2,2,59,1,name,2,2,1333,1
4,2,2,60,1,name,1,1,1612.999999999971,1
4,2,2,61,4,none,1,1,1647,1
4,2,2,62,4,none,2,2,1480,1
4,2,2,63,4,none,1,1,814,1
4,2,2,64,4,none,1,1,1326,1
4,2,2,65,4,none,1,1,830,1
4,2,2,66,4,none,2,2,1159,1
4,2,2,67,4,none,2,2,1035.999999999971,1
4,2,2,68,4,none,2,1,879,0
4,2,2,69,4,none,1,1,1082,1
4,2,2,70,4,none,2,2,1228.999999999971,1
4,2,2,71,2,tie,1,1,1172,1
4,2,2,72,2,tie,1,1,1337,1
4,2,2,73,2,tie,1,1,1588,1
4,2,2,74,2,tie,2,2,1097,1
4,2,2,75,2,tie,2,2,966,1
4,2,2,76,2,tie,2,2,1116,1
4,2,2,77,2,tie,2,2,1425,1
4,2,2,78,2,tie,1,1,1921,1
4,2,2,79,2,tie,1,1,1258,1
4,2,2,80,2,tie,2,2,1285.999999999971,1
4,3,1,1,1,name,1,1,1835,1
4,3,1,2,1,name,2,2,965,1
4,3,1,3,1,name,2,2,1114,1
4,3,1,4,1,name,2,2,1018,1
4,3,1,5,1,name,1,1,1112,1
4,3,1,6,1,name,1,1,904,1
4,3,1,7,1,name,1,1,1461,1
4,3,1,8,1,name,1,1,1328,1
4,3,1,9,1,name,2,1,1420,0
4,3,1,10,1,name,2,2,992.9999999999964,1
4,3,1,11,3,both,1,1,815,1
4,3,1,12,3,both,2,2,1340,1
4,3,1,13,3,both,1,2,1269,0
4,3,1,14,3,both,2,2,1477,1
4,3,1,15,3,both,2,2,1651,1
4,3,1,16,3,both,1,1,1202,1
4,3,1,17,3,both,2,2,1365,1
4,3,1,18,3,both,1,1,1349,1
4,3,1,19,3,both,1,1,1515,1
4,3,1,20,3,both,2,2,1601,1
4,3,1,21,2,tie,2,2,1327,1
4,3,1,22,2,tie,2,1,1174,0
4,3,1,23,2,tie,1,1,1088,1
4,3,1,24,2,tie,2,2,1397,1
4,3,1,25,2,tie,1,1,1488,1
4,3,1,26,2,tie,1,1,1417,1
4,3,1,27,2,tie,1,1,1625,1
4,3,1,28,2,tie,2,2,1315.9999999999854,1
4,3,1,29,2,tie,2,2,1107,1
4,3,1,30,2,tie,1,1,1044,1
4,3,1,31,4,none,2,2,1482,1
4,3,1,32,4,none,2,1,940,0
4,3,1,33,4,none,1,1,1259,1
4,3,1,34,4,none,2,1,1820,0
4,3,1,35,4,none,2,2,1372,1
4,3,1,36,4,none,1,1,1284,1
4,3,1,37,4,none,2,2,1154.9999999999854,1
4,3,1,38,4,none,1,1,1083.9999999999854,1
4,3,1,39,4,none,1,1,936,1
4,3,1,40,4,none,1,1,1281,1
4,3,1,41,2,tie,1,1,1227,1
4,3,1,42,2,tie,2,2,1149,1
4,3,1,43,2,tie,1,1,918,1
4,3,1,44,2,tie,1,1,1300,1
4,3,1,45,2,tie,2,2,1318,1
4,3,1,46,2,tie,2,2,1240,1
4,3,1,47,2,tie,2,2,1799,1
4,3,1,48,2,tie,2,2,1302,1
4,3,1,49,2,tie,1,2,1566.0000000000146,0
4,3,1,50,2,tie,1,1,983,1
4,3,1,51,3,both,1,1,1455,1
4,3,1,52,3,both,1,1,945,1
4,3,1,53,3,both,2,2,992,1
4,3,1,54,3,both,2,2,1862.999999999971,1
4,3,1,55,3,both,1,1,960,1
4,3,1,56,3,both,2,2,1197,1
4,3,1,57,3,both,1,1,1728.999999999971,1
4,3,1,58,3,both,2,2,1243,1
4,3,1,59,3,both,2,2,1123.999999999971,1
4,3,1,60,3,both,1,1,1214,1
4,3,1,61,1,name,1,1,1747.999999999971,1
4,3,1,62,1,name,1,1,1262.999999999971,1
4,3,1,63,1,name,1,2,1449,0
4,3,1,64,1,name,2,2,1385,1
4,3,1,65,1,name,2,2,1212,1
4,3,1,66,1,name,2,2,1311,1
4,3,1,67,1,name,2,2,1673,1
4,3,1,68,1,name,2,2,1330,1
4,3,1,69,1,name,1,1,856,1
4,3,1,70,1,name,1,1,1279,1
4,3,1,71,4,none,1,2,1722,0
4,3,1,72,4,none,2,2,1616,1
4,3,1,73,4,none,2,2,941,1
4,3,1,74,4,none,2,2,1195,1
4,3,1,75,4,none,2,2,1217,1
4,3,1,76,4,none,1,1,1404,1
4,3,1,77,4,none,1,1,1396.999999999971,1
4,3,1,78,4,none,2,2,1476.999999999971,1
4,3,1,79,4,none,1,1,1024,1
4,3,1,80,4,none,1,1,1021,1
4,3,2,3,4,none,1,1,1246,1
4,3,2,4,4,none,1,1,946,1
4,3,2,5,4,none,2,2,1108,1
4,3,2,6,4,none,2,2,1163,1
4,3,2,7,4,none,2,2,1407,1
4,3,2,8,4,none,1,1,708,1
4,3,2,9,4,none,2,2,894,1
4,3,2,10,4,none,1,1,1092,1
4,3,2,11,1,name,2,2,983,1
4,3,2,12,1,name,2,2,924,1
4,3,2,13,1,name,2,2,1010,1
4,3,2,14,1,name,1,1,1044,1
4,3,2,15,1,name,2,2,1131,1
4,3,2,16,1,name,2,2,1073.9999999999927,1
4,3,2,17,1,name,1,1,807,1
4,3,2,18,1,name,1,1,1009,1
4,3,2,19,1,name,1,1,837,1
4,3,2,20,1,name,1,2,853,0
4,3,2,21,2,tie,1,1,1292,1
4,3,2,22,2,tie,2,2,1009,1
4,3,2,23,2,tie,2,2,1249,1
4,3,2,24,2,tie,2,2,1256,1
4,3,2,25,2,tie,2,2,984,1
4,3,2,26,2,tie,1,1,760,1
4,3,2,27,2,tie,2,2,727,1
4,3,2,28,2,tie,1,1,1758,1
4,3,2,29,2,tie,1,1,1808,1
4,3,2,30,2,tie,1,1,1022.9999999999854,1
4,3,2,31,3,both,1,1,979.9999999999854,1
4,3,2,32,3,both,2,2,861,1
4,3,2,33,3,both,1,1,786.9999999999854,1
4,3,2,34,3,both,2,2,792,1
4,3,2,35,3,both,2,2,673,1
4,3,2,36,3,both,2,2,645,1
4,3,2,37,3,both,1,2,1238,0
4,3,2,38,3,both,1,1,853,1
4,3,2,39,3,both,1,1,1086,1
4,3,2,40,3,both,2,2,962,1
4,3,2,41,4,none,2,1,1238,0
4,3,2,42,4,none,1,1,890,1
4,3,2,43,4,none,1,1,1053,1
4,3,2,44,4,none,1,1,649,1
4,3,2,45,4,none,2,2,820,1
4,3,2,46,4,none,2,2,686,1
4,3,2,47,4,none,2,1,826,0
4,3,2,48,4,none,1,1,1022,1
4,3,2,49,4,none,1,1,757,1
4,3,2,50,4,none,2,2,1022,1
4,3,2,51,1,name,1,1,832,1
4,3,2,52,1,name,2,2,702.9999999999709,1
4,3,2,53,1,name,1,1,1074,1
4,3,2,54,1,name,2,2,1169,1
4,3,2,55,1,name,2,2,830,1
4,3,2,56,1,name,1,1,1058,1
4,3,2,57,1,name,1,2,1141,0
4,3,2,58,1,name,2,2,1089,1
4,3,2,59,1,name,1,1,798,1
4,3,2,60,1,name,2,2,906,1
4,3,2,61,3,both,2,2,1729,1
4,3,2,62,3,both,1,1,891,1
4,3,2,63,3,both,1,1,708,1
4,3,2,64,3,both,2,2,798,1
4,3,2,65,3,both,2,2,1217,1
4,3,2,66,3,both,1,1,673,1
4,3,2,67,3,both,1,1,752,1
4,3,2,68,3,both,2,2,711,1
4,3,2,69,3,both,1,1,620,1
4,3,2,70,3,both,2,2,1502,1
4,3,2,71,2,tie,1,1,714.9999999999709,1
4,3,2,72,2,tie,2,1,801,0
4,3,2,74,2,tie,2,2,1549,1
4,3,2,75,2,tie,1,1,926,1
4,3,2,76,2,tie,1,1,981.9999999999709,1
4,3,2,77,2,tie,1,1,901,1
4,3,2,78,2,tie,2,2,809.9999999999709,1
4,3,2,79,2,tie,2,2,862,1
4,3,2,80,2,tie,1,2,973,0
4,4,1,1,3,both,1,1,1482,1
4,4,1,2,3,both,1,2,863,0
4,4,1,3,3,both,1,1,1265,1
4,4,1,4,3,both,1,1,842,1
4,4,1,5,3,both,2,2,1066,1
4,4,1,6,3,both,2,2,915,1
4,4,1,7,3,both,2,1,853,0
4,4,1,8,3,both,2,2,1072,1
4,4,1,9,3,both,1,1,1459,1
4,4,1,10,3,both,2,2,1242,1
4,4,1,11,4,none,2,2,921.9999999999964,1
4,4,1,12,4,none,2,2,743.9999999999964,1
4,4,1,13,4,none,2,1,1543,0
4,4,1,14,4,none,1,1,1867,1
4,4,1,15,4,none,1,1,1680,1
4,4,1,16,4,none,1,1,1250,1
4,4,1,17,4,none,1,1,892.9999999999927,1
4,4,1,18,4,none,1,1,817,1
4,4,1,19,4,none,2,2,719,1
4,4,1,20,4,none,2,2,763,1
4,4,1,21,1,name,1,1,763.9999999999927,1
4,4,1,22,1,name,2,2,909,1
4,4,1,23,1,name,2,2,955,1
4,4,1,24,1,name,1,1,1592,1
4,4,1,25,1,name,1,1,1988,1
4,4,1,26,1,name,2,2,888,1
4,4,1,27,1,name,2,2,935,1
4,4,1,28,1,name,1,1,1334,1
4,4,1,29,1,name,2,2,699.9999999999854,1
4,4,1,30,1,name,1,1,716.9999999999854,1
4,4,1,31,4,none,1,1,915,1
4,4,1,32,4,none,1,1,1240,1
4,4,1,33,4,none,1,1,633,1
4,4,1,34,4,none,2,2,815,1
4,4,1,35,4,none,2,2,821,1
4,4,1,36,4,none,2,2,1232,1
4,4,1,37,4,none,2,2,1072,1
4,4,1,38,4,none,1,1,942,1
4,4,1,39,4,none,1,1,944,1
4,4,1,40,4,none,2,2,708,1
4,4,1,41,3,both,1,1,878,1
4,4,1,42,3,both,2,2,803,1
4,4,1,43,3,both,2,2,781,1
4,4,1,44,3,both,1,1,647,1
4,4,1,45,3,both,1,1,948,1
4,4,1,46,3,both,1,1,645,1
4,4,1,47,3,both,1,1,1311.9999999999854,1
4,4,1,48,3,both,2,2,975,1
4,4,1,49,3,both,2,2,956.9999999999854,1
4,4,1,50,3,both,2,2,668,1
4,4,1,51,2,tie,1,1,749,1
4,4,1,52,2,tie,2,2,950,1
4,4,1,53,2,tie,2,2,984,1
4,4,1,54,2,tie,1,1,1456,1
4,4,1,55,2,tie,2,2,1297,1
4,4,1,56,2,tie,2,2,1179,1
4,4,1,57,2,tie,1,1,893.9999999999709,1
4,4,1,58,2,tie,2,2,916,1
4,4,1,59,2,tie,1,1,1007,1
4,4,1,60,2,tie,1,1,1273,1
4,4,1,61,1,name,2,2,924,1
4,4,1,62,1,name,1,1,1261.999999999971,1
4,4,1,63,1,name,1,1,1731,1
4,4,1,64,1,name,1,1,1088,1
4,4,1,65,1,name,2,2,854,1
4,4,1,66,1,name,1,2,1065,0
4,4,1,67,1,name,2,2,1116,1
4,4,1,68,1,name,2,2,798,1
4,4,1,69,1,name,1,2,1348,0
4,4,1,70,1,name,2,2,1218,1
4,4,1,71,2,tie,1,1,968,1
4,4,1,72,2,tie,2,2,931,1
4,4,1,73,2,tie,2,2,865,1
4,4,1,74,2,tie,2,2,994,1
4,4,1,75,2,tie,2,2,772,1
4,4,1,76,2,tie,1,1,699.9999999999709,1
4,4,1,77,2,tie,1,1,1404,1
4,4,1,78,2,tie,1,1,1029.999999999971,1
4,4,1,79,2,tie,2,2,716,1
4,4,1,80,2,tie,1,1,1044.999999999971,1
4,4,2,1,1,name,1,1,1629,1
4,4,2,2,1,name,2,2,764,1
4,4,2,3,1,name,2,2,874,1
4,4,2,4,1,name,2,2,724,1
4,4,2,5,1,name,1,1,822,1
4,4,2,6,1,name,2,2,855,1
4,4,2,7,1,name,2,2,903,1
4,4,2,8,1,name,1,2,734,0
4,4,2,9,1,name,1,1,978,1
4,4,2,10,1,name,1,1,886,1
4,4,2,11,3,both,2,2,721,1
4,4,2,12,3,both,2,2,770.9999999999964,1
4,4,2,13,3,both,1,2,979,0
4,4,2,14,3,both,1,1,744.9999999999927,1
4,4,2,15,3,both,2,2,721,1
4,4,2,16,3,both,2,2,1053.9999999999927,1
4,4,2,17,3,both,1,1,1152,1
4,4,2,18,3,both,1,1,1144,1
4,4,2,19,3,both,2,2,804,1
4,4,2,20,3,both,1,1,617,1
4,4,2,22,1,name,1,1,1000,1
4,4,2,23,1,name,2,2,895,1
4,4,2,24,1,name,2,2,927.0000000000073,1
4,4,2,25,1,name,1,1,1129,1
4,4,2,26,1,name,1,1,745,1
4,4,2,27,1,name,2,2,677,1
4,4,2,28,1,name,1,1,862,1
4,4,2,29,1,name,1,1,867,1
4,4,2,30,1,name,2,2,786,1
4,4,2,31,2,tie,2,1,743,0
4,4,2,32,2,tie,1,1,769,1
4,4,2,33,2,tie,1,1,1060,1
4,4,2,34,2,tie,1,1,780,1
4,4,2,35,2,tie,2,2,777,1
4,4,2,36,2,tie,1,2,843,0
4,4,2,37,2,tie,2,2,779,1
4,4,2,38,2,tie,2,2,732,1
4,4,2,39,2,tie,2,2,874,1
4,4,2,40,2,tie,1,1,742,1
4,4,2,41,4,none,2,1,1435,0
4,4,2,42,4,none,1,1,856.9999999999854,1
4,4,2,43,4,none,1,1,713.9999999999854,1
4,4,2,44,4,none,2,2,945,1
4,4,2,45,4,none,2,2,965,1
4,4,2,46,4,none,2,2,1403,1
4,4,2,47,4,none,1,1,856,1
4,4,2,48,4,none,2,2,903,1
4,4,2,49,4,none,1,1,1356,1
4,4,2,50,4,none,1,1,671,1
4,4,2,51,3,both,1,1,740,1
4,4,2,52,3,both,2,2,1275,1
4,4,2,53,3,both,1,1,800,1
4,4,2,54,3,both,1,1,726,1
4,4,2,55,3,both,1,1,719,1
4,4,2,56,3,both,2,2,652,1
4,4,2,57,3,both,2,2,676,1
4,4,2,58,3,both,2,2,660,1
4,4,2,59,3,both,2,2,662,1
4,4,2,60,3,both,1,1,1143,1
4,4,2,61,2,tie,2,2,766,1
4,4,2,62,2,tie,1,2,1302,0
4,4,2,63,2,tie,2,1,1290,0
4,4,2,64,2,tie,1,1,723.9999999999709,1
4,4,2,65,2,tie,1,1,1060,1
4,4,2,66,2,tie,1,1,1045,1
4,4,2,67,2,tie,2,2,751,1
4,4,2,68,2,tie,2,2,751,1
4,4,2,69,2,tie,1,1,898,1
4,4,2,70,2,tie,2,2,1126,1
4,4,2,71,4,none,2,2,1623,1
4,4,2,72,4,none,1,1,1025,1
4,4,2,73,4,none,1,1,873,1
4,4,2,74,4,none,1,1,751,1
4,4,2,75,4,none,2,1,643,0
4,4,2,76,4,none,2,1,2492,0
4,4,2,78,4,none,1,1,824,1
4,4,2,79,4,none,2,2,1745,1
4,4,2,80,4,none,2,2,1701,1
4,5,1,1,3,both,1,1,1362.9999999999998,1
4,5,1,2,3,both,1,1,896,1
4,5,1,3,3,both,2,2,1012,1
4,5,1,4,3,both,1,1,1018,1
4,5,1,5,3,both,1,1,1338.9999999999982,1
4,5,1,6,3,both,2,2,813,1
4,5,1,7,3,both,1,1,1348,1
4,5,1,8,3,both,2,2,703,1
4,5,1,9,3,both,2,2,802,1
4,5,1,10,3,both,2,2,722.9999999999964,1
4,5,1,11,1,name,2,2,706,1
4,5,1,12,1,name,1,1,964.9999999999964,1
4,5,1,13,1,name,2,2,676,1
4,5,1,14,1,name,2,1,1065,0
4,5,1,15,1,name,2,2,977,1
4,5,1,16,1,name,1,1,1100,1
4,5,1,17,1,name,1,1,712,1
4,5,1,18,1,name,2,2,896,1
4,5,1,19,1,name,1,1,907.9999999999927,1
4,5,1,20,1,name,1,1,919,1
4,5,1,21,2,tie,1,1,1251,1
4,5,1,22,2,tie,2,2,901,1
4,5,1,23,2,tie,1,1,949,1
4,5,1,24,2,tie,2,2,957,1
4,5,1,25,2,tie,2,2,969,1
4,5,1,26,2,tie,1,1,851,1
4,5,1,27,2,tie,1,1,994,1
4,5,1,28,2,tie,2,2,869,1
4,5,1,29,2,tie,2,2,788,1
4,5,1,30,2,tie,1,2,832,0
4,5,1,31,4,none,1,1,684.9999999999854,1
4,5,1,32,4,none,2,2,799,1
4,5,1,33,4,none,2,1,1257,0
4,5,1,34,4,none,2,2,888,1
4,5,1,35,4,none,2,2,1530,1
4,5,1,36,4,none,1,1,748,1
4,5,1,37,4,none,1,1,660,1
4,5,1,38,4,none,1,1,674,1
4,5,1,39,4,none,2,2,950,1
4,5,1,40,4,none,1,1,984,1
4,5,1,41,1,name,2,2,1694,1
4,5,1,42,1,name,2,2,932,1
4,5,1,43,1,name,2,2,942.9999999999854,1
4,5,1,44,1,name,2,2,1070,1
4,5,1,45,1,name,1,1,1011,1
4,5,1,46,1,name,1,1,1223.9999999999854,1
4,5,1,47,1,name,1,1,770,1
4,5,1,48,1,name,1,1,709,1
4,5,1,49,1,name,1,1,619,1
4,5,1,50,1,name,2,2,784,1
4,5,1,51,4,none,1,1,765,1
4,5,1,52,4,none,2,2,962,1
4,5,1,53,4,none,2,2,1358,1
4,5,1,54,4,none,2,2,1018,1
4,5,1,55,4,none,2,2,1172,1
4,5,1,56,4,none,1,1,767,1
4,5,1,58,4,none,1,1,931,1
4,5,1,59,4,none,1,1,948.9999999999709,1
4,5,1,60,4,none,1,1,763,1
4,5,1,61,2,tie,2,2,906,1
4,5,1,62,2,tie,1,1,804.9999999999709,1
4,5,1,63,2,tie,1,1,759,1
4,5,1,64,2,tie,1,1,1032,1
4,5,1,65,2,tie,2,2,682,1
4,5,1,66,2,tie,2,2,759.9999999999709,1
4,5,1,67,2,tie,1,1,1023,1
4,5,1,68,2,tie,2,2,871,1
4,5,1,69,2,tie,1,2,976.9999999999709,0
4,5,1,70,2,tie,2,2,856,1
4,5,1,71,3,both,2,2,729.9999999999709,1
4,5,1,72,3,both,1,1,655,1
4,5,1,73,3,both,1,1,769,1
4,5,1,74,3,both,1,1,1015,1
4,5,1,76,3,both,1,1,946,1
4,5,1,77,3,both,1,1,1002.9999999999709,1
4,5,1,78,3,both,2,2,1238,1
4,5,1,79,3,both,2,2,1541,1
4,5,1,80,3,both,2,2,1650,1
4,5,2,1,2,tie,2,2,1376,1
4,5,2,2,2,tie,2,2,768,1
4,5,2,3,2,tie,2,2,814,1
4,5,2,4,2,tie,1,1,946,1
4,5,2,5,2,tie,1,1,960,1
4,5,2,6,2,tie,1,1,1250,1
4,5,2,7,2,tie,1,1,740,1
4,5,2,8,2,tie,2,2,1181.9999999999964,1
4,5,2,9,2,tie,2,2,691,1
4,5,2,10,2,tie,1,1,1164.9999999999964,1
4,5,2,11,3,both,2,2,983.9999999999964,1
4,5,2,12,3,both,2,2,1097,1
4,5,2,13,3,both,1,1,742.9999999999964,1
4,5,2,14,3,both,1,1,724,1
4,5,2,15,3,both,1,1,1193.9999999999927,1
4,5,2,16,3,both,2,2,1085,1
4,5,2,17,3,both,1,1,818,1
4,5,2,18,3,both,2,2,1343.9999999999927,1
4,5,2,19,3,both,2,2,1226,1
4,5,2,20,3,both,1,1,903,1
4,5,2,21,4,none,1,1,1522,1
4,5,2,22,4,none,2,2,1175,1
4,5,2,23,4,none,1,1,723.9999999999927,1
4,5,2,24,4,none,1,1,786,1
4,5,2,25,4,none,2,2,1154,1
4,5,2,26,4,none,1,1,1117,1
4,5,2,27,4,none,2,1,868,0
4,5,2,28,4,none,2,2,1364,1
4,5,2,29,4,none,2,2,1264,1
4,5,2,30,4,none,1,1,1118,1
4,5,2,31,1,name,1,1,821,1
4,5,2,32,1,name,2,2,900,1
4,5,2,33,1,name,2,2,837,1
4,5,2,34,1,name,1,1,780,1
4,5,2,35,1,name,1,1,690,1
4,5,2,36,1,name,1,1,738,1
4,5,2,37,1,name,2,2,801,1
4,5,2,38,1,name,1,1,685,1
4,5,2,39,1,name,2,1,705,0
4,5,2,40,1,name,2,2,797.9999999999854,1
4,5,2,41,3,both,1,1,938,1
4,5,2,42,3,both,2,1,732.9999999999854,0
4,5,2,43,3,both,1,1,884,1
4,5,2,44,3,both,2,2,910.9999999999854,1
4,5,2,46,3,both,1,1,1525,1
4,5,2,47,3,both,1,1,1126,1
4,5,2,48,3,both,2,2,1428,1
4,5,2,49,3,both,1,1,1083,1
4,5,2,50,3,both,2,2,883,1
4,5,2,51,2,tie,2,1,1066,0
4,5,2,53,2,tie,1,1,1115,1
4,5,2,54,2,tie,2,2,750,1
4,5,2,55,2,tie,1,1,950,1
4,5,2,56,2,tie,1,1,1027,1
4,5,2,57,2,tie,1,1,626,1
4,5,2,58,2,tie,2,2,1104,1
4,5,2,59,2,tie,2,2,1319,1
4,5,2,60,2,tie,1,1,1025,1
4,5,2,61,1,name,1,2,1609,0
4,5,2,62,1,name,2,2,903,1
4,5,2,63,1,name,2,2,1041,1
4,5,2,64,1,name,1,1,1008,1
4,5,2,65,1,name,2,2,977,1
4,5,2,66,1,name,1,1,998,1
4,5,2,67,1,name,2,1,1347,0
4,5,2,68,1,name,1,1,710,1
4,5,2,69,1,name,2,2,835,1
4,5,2,70,1,name,1,1,765,1
4,5,2,71,4,none,1,1,658,1
4,5,2,72,4,none,2,2,877.9999999999709,1
4,5,2,73,4,none,2,1,797,0
4,5,2,74,4,none,1,1,856,1
4,5,2,75,4,none,2,1,968,0
4,5,2,76,4,none,2,2,940,1
4,5,2,77,4,none,1,1,932,1
4,5,2,78,4,none,2,2,829.9999999999709,1
4,5,2,79,4,none,1,1,957,1
4,5,2,80,4,none,1,1,959,1
5,1,1,1,3,both,2,2,1821,1
5,1,1,2,3,both,1,1,1319,1
5,1,1,3,3,both,1,2,1424,0
5,1,1,4,3,both,2,2,1224,1
5,1,1,5,3,both,1,1,1483,1
5,1,1,6,3,both,2,2,1458,1
5,1,1,7,3,both,2,2,1518,1
5,1,1,8,3,both,2,2,1050,1
5,1,1,9,3,both,1,1,1997,1
5,1,1,10,3,both,1,1,1259,1
5,1,1,11,4,none,1,1,1797,1
5,1,1,12,4,none,1,1,1286,1
5,1,1,13,4,none,2,2,1484,1
5,1,1,14,4,none,2,2,1282,1
5,1,1,15,4,none,1,1,1115,1
5,1,1,16,4,none,1,1,1776,1
5,1,1,17,4,none,2,2,1160,1
5,1,1,18,4,none,2,2,1252,1
5,1,1,19,4,none,1,1,1168,1
5,1,1,20,4,none,2,2,1798,1
5,1,1,21,1,name,1,1,1906,1
5,1,1,22,1,name,2,2,1558,1
5,1,1,23,1,name,2,2,1262,1
5,1,1,24,1,name,2,2,2206.9999999999854,1
5,1,1,25,1,name,2,2,1296,1
5,1,1,26,1,name,1,1,1074.9999999999854,1
5,1,1,27,1,name,1,1,1164.9999999999854,1
5,1,1,28,1,name,1,2,1085,0
5,1,1,29,1,name,2,2,1057,1
5,1,1,30,1,name,1,1,1492,1
5,1,1,31,3,both,2,2,901,1
5,1,1,32,3,both,2,2,887,1
5,1,1,33,3,both,1,1,1458,1
5,1,1,34,3,both,1,1,1141.9999999999854,1
5,1,1,35,3,both,2,2,934.9999999999854,1
5,1,1,36,3,both,2,2,1199,1
5,1,1,37,3,both,2,2,1121,1
5,1,1,38,3,both,1,1,956,1
5,1,1,39,3,both,1,2,1581,0
5,1,1,40,3,both,1,2,1535,0
5,1,1,41,2,tie,1,1,2229.9999999999854,1
5,1,1,42,2,tie,2,2,970.9999999999709,1
5,1,1,43,2,tie,2,2,1232,1
5,1,1,44,2,tie,1,2,1694,0
5,1,1,45,2,tie,2,2,1011,1
5,1,1,46,2,tie,1,1,1207,1
5,1,1,47,2,tie,1,1,953,1
5,1,1,48,2,tie,2,2,956,1
5,1,1,49,2,tie,1,1,1147,1
5,1,1,50,2,tie,2,2,1223,1
5,1,1,51,4,none,1,1,896,1
5,1,1,52,4,none,2,2,1025,1
5,1,1,53,4,none,2,2,864,1
5,1,1,54,4,none,2,2,857,1
5,1,1,55,4,none,1,1,999,1
5,1,1,56,4,none,1,2,822.9999999999709,0
5,1,1,57,4,none,2,1,1941,0
5,1,1,58,4,none,1,1,853,1
5,1,1,59,4,none,2,2,823,1
5,1,1,60,4,none,1,1,908,1
5,1,1,61,1,name,1,1,1316,1
5,1,1,62,1,name,1,1,1074,1
5,1,1,63,1,name,2,2,1395,1
5,1,1,64,1,name,2,2,1174,1
5,1,1,65,1,name,2,2,1530.999999999971,1
5,1,1,66,1,name,1,1,652,1
5,1,1,67,1,name,2,2,1416,1
5,1,1,68,1,name,1,1,741.9999999999709,1
5,1,1,69,1,name,2,2,853,1
5,1,1,70,1,name,1,1,1587,1
5,1,1,71,2,tie,2,2,794.9999999999709,1
5,1,1,72,2,tie,2,1,767,0
5,1,1,73,2,tie,2,2,1061,1
5,1,1,74,2,tie,1,1,940,1
5,1,1,75,2,tie,1,1,992,1
5,1,1,76,2,tie,2,2,1337.999999999971,1
5,1,1,77,2,tie,2,2,1073,1
5,1,1,78,2,tie,1,1,720,1
5,1,1,79,2,tie,1,1,1128,1
5,1,1,80,2,tie,1,1,958,1
5,1,2,3,1,name,2,2,2043,1
5,1,2,4,1,name,1,1,1265,1
5,1,2,5,1,name,1,1,948,1
5,1,2,6,1,name,1,1,1589,1
5,1,2,7,1,name,2,2,1631.9999999999964,1
5,1,2,8,1,name,1,1,1641,1
5,1,2,9,1,name,2,2,1547,1
5,1,2,10,1,name,1,1,1886,1
5,1,2,11,3,both,1,1,1428,1
5,1,2,12,3,both,2,1,1780,0
5,1,2,13,3,both,2,2,1399,1
5,1,2,14,3,both,1,2,1626,0
5,1,2,15,3,both,2,2,1530,1
5,1,2,16,3,both,2,2,1446,1
5,1,2,17,3,both,2,2,1546,1
5,1,2,18,3,both,1,1,1288,1
5,1,2,19,3,both,1,1,1183,1
5,1,2,20,3,both,1,1,1769,1
5,1,2,21,1,name,1,1,2051,1
5,1,2,22,1,name,2,2,1313,1
5,1,2,23,1,name,2,1,1174,0
5,1,2,24,1,name,1,1,1085,1
5,1,2,25,1,name,1,1,1073,1
5,1,2,26,1,name,1,1,1553,1
5,1,2,27,1,name,2,2,1604,1
5,1,2,28,1,name,1,1,805,1
5,1,2,29,1,name,2,1,1113,0
5,1,2,30,1,name,2,2,893,1
5,1,2,31,4,none,1,1,1023,1
5,1,2,32,4,none,2,2,882,1
5,1,2,33,4,none,2,2,891,1
5,1,2,34,4,none,1,1,791,1
5,1,2,35,4,none,2,2,813,1
5,1,2,36,4,none,2,2,882,1
5,1,2,37,4,none,1,1,1454,1
5,1,2,38,4,none,1,1,826,1
5,1,2,39,4,none,2,1,1367,0
5,1,2,40,4,none,1,1,691.9999999999854,1
5,1,2,41,2,tie,1,2,1577,0
5,1,2,42,2,tie,1,1,1620,1
5,1,2,43,2,tie,2,2,1060,1
5,1,2,44,2,tie,2,2,1197,1
5,1,2,45,2,tie,1,1,1030,1
5,1,2,46,2,tie,2,2,1163,1
5,1,2,47,2,tie,2,2,1232.9999999999854,1
5,1,2,48,2,tie,1,2,1471,0
5,1,2,49,2,tie,2,2,1422,1
5,1,2,50,2,tie,1,1,945,1
5,1,2,51,3,both,2,2,970,1
5,1,2,52,3,both,1,2,1195,0
5,1,2,53,3,both,2,2,1101,1
5,1,2,54,3,both,1,1,844,1
5,1,2,55,3,both,2,2,1177,1
5,1,2,56,3,both,1,2,1058,0
5,1,2,57,3,both,2,2,787,1
5,1,2,58,3,both,1,1,999,1
5,1,2,59,3,both,2,1,1613.999999999971,0
5,1,2,60,3,both,1,1,904,1
5,1,2,61,4,none,1,1,1093,1
5,1,2,62,4,none,2,2,1526,1
5,1,2,63,4,none,1,2,1829,0
5,1,2,64,4,none,2,2,1332,1
5,1,2,65,4,none,1,1,834,1
5,1,2,66,4,none,2,2,1317,1
5,1,2,67,4,none,1,1,1273,1
5,1,2,68,4,none,1,1,1235,1
5,1,2,69,4,none,2,2,1027,1
5,1,2,70,4,none,2,2,1110,1
5,1,2,71,2,tie,2,1,1932,0
5,1,2,72,2,tie,1,1,1601,1
5,1,2,73,2,tie,2,2,1117.999999999971,1
5,1,2,74,2,tie,1,1,1082,1
5,1,2,75,2,tie,2,2,1025,1
5,1,2,76,2,tie,1,1,956,1
5,1,2,77,2,tie,2,2,1526,1
5,1,2,78,2,tie,1,1,1063,1
5,1,2,79,2,tie,1,1,1064,1
5,1,2,80,2,tie,2,2,1124,1
5,2,1,3,1,name,2,2,1419,1
5,2,1,4,1,name,2,1,1933,0
5,2,1,5,1,name,1,1,1681,1
5,2,1,6,1,name,1,1,2442,1
5,2,1,7,1,name,1,2,1544,0
5,2,1,8,1,name,2,2,1293,1
5,2,1,9,1,name,2,2,1225,1
5,2,1,10,1,name,1,1,1505,1
5,2,1,11,2,tie,2,2,1449,1
5,2,1,12,2,tie,1,1,1395,1
5,2,1,13,2,tie,1,2,1327,0
5,2,1,14,2,tie,2,2,1283,1
5,2,1,15,2,tie,2,2,1572.9999999999927,1
5,2,1,16,2,tie,1,1,1988,1
5,2,1,17,2,tie,2,2,1511,1
5,2,1,18,2,tie,2,2,1552.9999999999927,1
5,2,1,19,2,tie,1,1,1400,1
5,2,1,20,2,tie,1,1,1338.9999999999927,1
5,2,1,21,3,both,2,2,1250,1
5,2,1,22,3,both,2,1,1453,0
5,2,1,23,3,both,1,1,1133,1
5,2,1,24,3,both,1,1,1730,1
5,2,1,25,3,both,2,2,1448,1
5,2,1,26,3,both,1,1,1623,1
5,2,1,27,3,both,2,2,2100,1
5,2,1,28,3,both,1,1,1464,1
5,2,1,29,3,both,2,2,1616,1
5,2,1,30,3,both,1,1,902,1
5,2,1,31,1,name,2,2,1221,1
5,2,1,32,1,name,1,2,1620,0
5,2,1,33,1,name,2,2,1466,1
5,2,1,34,1,name,1,1,1383,1
5,2,1,35,1,name,1,1,1556.9999999999854,1
5,2,1,36,1,name,2,2,1158,1
5,2,1,37,1,name,2,2,1294,1
5,2,1,38,1,name,2,2,1185,1
5,2,1,39,1,name,1,1,1904,1
5,2,1,40,1,name,1,1,1417,1
5,2,1,41,4,none,1,1,1920.9999999999854,1
5,2,1,42,4,none,2,2,1177.999999999971,1
5,2,1,43,4,none,2,2,2076,1
5,2,1,44,4,none,2,2,1418,1
5,2,1,45,4,none,1,1,1233,1
5,2,1,46,4,none,2,2,1195,1
5,2,1,47,4,none,1,1,1251.999999999971,1
5,2,1,48,4,none,2,2,1429,1
5,2,1,49,4,none,1,1,2076,1
5,2,1,50,4,none,1,1,1977,1
5,2,1,51,2,tie,2,1,1799,0
5,2,1,52,2,tie,1,1,1019,1
5,2,1,53,2,tie,2,2,1067.999999999971,1
5,2,1,54,2,tie,1,1,1410,1
5,2,1,55,2,tie,2,2,1058,1
5,2,1,56,2,tie,1,1,1388.999999999971,1
5,2,1,57,2,tie,1,2,1809,0
5,2,1,58,2,tie,2,2,1149,1
5,2,1,59,2,tie,2,2,1579,1
5,2,1,60,2,tie,1,1,1924,1
5,2,1,61,4,none,2,2,1634,1
5,2,1,62,4,none,1,1,916,1
5,2,1,63,4,none,1,1,1564,1
5,2,1,64,4,none,2,2,1295,1
5,2,1,65,4,none,2,2,1963,1
5,2,1,66,4,none,2,2,1142,1
5,2,1,67,4,none,2,1,896,0
5,2,1,68,4,none,1,1,1167,1
5,2,1,69,4,none,1,1,1046,1
5,2,1,70,4,none,1,1,1021,1
5,2,1,71,3,both,1,1,723,1
5,2,1,72,3,both,2,2,1217,1
5,2,1,73,3,both,2,2,1027,1
5,2,1,74,3,both,1,1,724,1
5,2,1,75,3,both,1,1,765,1
5,2,1,76,3,both,1,1,1417,1
5,2,1,77,3,both,2,2,925,1
5,2,1,78,3,both,2,2,1251,1
5,2,1,79,3,both,1,1,922,1
5,2,1,80,3,both,2,2,1646,1
5,2,2,1,3,both,1,1,1291,1
5,2,2,3,3,both,1,1,2043,1
5,2,2,4,3,both,1,1,1018.9999999999982,1
5,2,2,5,3,both,2,2,960,1
5,2,2,6,3,both,2,2,1055,1
5,2,2,7,3,both,2,1,1081.9999999999964,0
5,2,2,8,3,both,2,2,1105,1
5,2,2,9,3,both,1,1,1886,1
5,2,2,10,3,both,2,2,1469,1
5,2,2,11,4,none,2,2,1273,1
5,2,2,12,4,none,2,2,1186,1
5,2,2,13,4,none,2,1,1254,0
5,2,2,14,4,none,1,1,1825,1
5,2,2,15,4,none,1,1,2274.9999999999927,1
5,2,2,16,4,none,1,1,1547.9999999999927,1
5,2,2,17,4,none,1,1,1603,1
5,2,2,18,4,none,1,1,953,1
5,2,2,19,4,none,2,2,1080,1
5,2,2,20,4,none,2,2,1342,1
5,2,2,21,1,name,1,1,1156.9999999999927,1
5,2,2,22,1,name,2,2,1371,1
5,2,2,23,1,name,2,2,1535,1
5,2,2,24,1,name,1,1,2110,1
5,2,2,25,1,name,1,1,2328.9999999999854,1
5,2,2,26,1,name,2,2,1520,1
5,2,2,27,1,name,2,2,1327,1
5,2,2,28,1,name,1,2,1444,0
5,2,2,29,1,name,2,1,1569,0
5,2,2,30,1,name,1,1,936,1
5,2,2,31,4,none,1,1,822,1
5,2,2,32,4,none,1,2,2156.9999999999854,0
5,2,2,33,4,none,1,1,1085,1
5,2,2,34,4,none,2,2,1024,1
5,2,2,35,4,none,2,2,1040,1
5,2,2,36,4,none,2,2,1340,1
5,2,2,37,4,none,2,2,1765,1
5,2,2,38,4,none,1,1,1041,1
5,2,2,39,4,none,1,1,1203.9999999999854,1
5,2,2,40,4,none,2,2,980.9999999999854,1
5,2,2,41,3,both,1,1,973,1
5,2,2,42,3,both,2,2,1044,1
5,2,2,43,3,both,2,2,973,1
5,2,2,44,3,both,1,1,1122,1
5,2,2,45,3,both,1,1,1574.9999999999854,1
5,2,2,46,3,both,1,1,755.9999999999854,1
5,2,2,47,3,both,1,1,1087.9999999999854,1
5,2,2,48,3,both,2,2,911.9999999999854,1
5,2,2,49,3,both,2,2,1590.9999999999854,1
5,2,2,50,3,both,2,2,1228,1
5,2,2,51,2,tie,1,1,952,1
5,2,2,52,2,tie,2,2,1428,1
5,2,2,53,2,tie,2,2,1446,1
5,2,2,54,2,tie,1,2,1108,0
5,2,2,55,2,tie,2,1,1567,0
5,2,2,56,2,tie,2,2,1596,1
5,2,2,57,2,tie,1,1,1143,1
5,2,2,58,2,tie,2,2,1316,1
5,2,2,59,2,tie,1,1,1028,1
5,2,2,60,2,tie,1,1,1285,1
5,2,2,61,1,name,2,2,1027,1
5,2,2,62,1,name,1,1,1149,1
5,2,2,63,1,name,1,1,2237,1
5,2,2,64,1,name,1,1,1182,1
5,2,2,65,1,name,2,2,1079,1
5,2,2,66,1,name,1,1,1144,1
5,2,2,67,1,name,2,1,1559,0
5,2,2,68,1,name,2,2,1239,1
5,2,2,69,1,name,1,1,1257,1
5,2,2,70,1,name,2,2,1057,1
5,2,2,71,2,tie,1,1,755,1
5,2,2,72,2,tie,2,2,938,1
5,2,2,73,2,tie,2,2,1069,1
5,2,2,74,2,tie,2,2,1122,1
5,2,2,75,2,tie,2,2,931,1
5,2,2,76,2,tie,1,2,873,0
5,2,2,77,2,tie,1,1,1016,1
5,2,2,78,2,tie,1,1,1164.999999999971,1
5,2,2,79,2,tie,2,2,920,1
5,2,2,80,2,tie,1,1,1227,1
5,3,1,1,4,none,2,2,1684,1
5,3,1,2,4,none,2,2,1202,1
5,3,1,3,4,none,1,1,1117.9999999999982,1
5,3,1,4,4,none,2,2,1240,1
5,3,1,5,4,none,1,1,1558.9999999999982,1
5,3,1,6,4,none,1,1,992,1
5,3,1,7,4,none,2,2,1595,1
5,3,1,8,4,none,1,1,971,1
5,3,1,9,4,none,1,1,936,1
5,3,1,10,4,none,2,2,921.9999999999964,1
5,3,1,11,2,tie,1,2,1976,0
5,3,1,12,2,tie,1,1,835.9999999999964,1
5,3,1,13,2,tie,2,2,1360.9999999999927,1
5,3,1,14,2,tie,2,2,1347,1
5,3,1,15,2,tie,1,1,1474,1
5,3,1,16,2,tie,2,2,1303,1
5,3,1,17,2,tie,2,2,1477,1
5,3,1,18,2,tie,1,1,1123,1
5,3,1,19,2,tie,2,2,949,1
5,3,1,20,2,tie,1,1,1019,1
5,3,1,21,3,both,1,1,1720.9999999999927,1
5,3,1,22,3,both,2,2,866,1
5,3,1,23,3,both,2,2,1114,1
5,3,1,24,3,both,2,2,1077,1
5,3,1,25,3,both,1,1,1602,1
5,3,1,26,3,both,2,2,1368,1
5,3,1,27,3,both,1,1,933,1
5,3,1,28,3,both,1,1,919,1
5,3,1,29,3,both,1,1,841,1
5,3,1,30,3,both,2,2,847,1
5,3,1,31,1,name,1,1,1637,1
5,3,1,32,1,name,2,2,1064,1
5,3,1,33,1,name,1,1,1100,1
5,3,1,34,1,name,2,2,915,1
5,3,1,35,1,name,2,2,928,1
5,3,1,36,1,name,2,2,922,1
5,3,1,37,1,name,2,2,1018,1
5,3,1,38,1,name,1,1,688,1
5,3,1,39,1,name,1,1,1028,1
5,3,1,40,1,name,1,1,723.9999999999854,1
5,3,1,41,4,none,1,1,1061,1
5,3,1,42,4,none,1,1,689,1
5,3,1,43,4,none,1,1,976,1
5,3,1,44,4,none,2,2,1154,1
5,3,1,45,4,none,1,1,1080,1
5,3,1,46,4,none,2,2,954,1
5,3,1,47,4,none,1,1,755,1
5,3,1,48,4,none,2,2,1139,1
5,3,1,49,4,none,2,1,1112,0
5,3,1,50,4,none,2,1,701,0
5,3,1,51,2,tie,1,1,922,1
5,3,1,52,2,tie,2,2,1499,1
5,3,1,53,2,tie,2,2,1294,1
5,3,1,54,2,tie,1,1,869,1
5,3,1,55,2,tie,1,1,1044,1
5,3,1,56,2,tie,2,1,1775,0
5,3,1,57,2,tie,1,1,1149.999999999971,1
5,3,1,58,2,tie,1,2,1134,0
5,3,1,59,2,tie,2,2,1072,1
5,3,1,60,2,tie,2,2,1087,1
5,3,1,61,1,name,2,2,1850,1
5,3,1,62,1,name,2,2,953,1
5,3,1,63,1,name,1,2,1135,0
5,3,1,64,1,name,1,1,935,1
5,3,1,65,1,name,1,1,1510,1
5,3,1,66,1,name,2,2,1096,1
5,3,1,67,1,name,1,1,1018,1
5,3,1,68,1,name,2,2,884,1
5,3,1,69,1,name,1,2,945,0
5,3,1,70,1,name,2,2,1141,1
5,3,1,71,3,both,2,2,837,1
5,3,1,72,3,both,1,1,946,1
5,3,1,73,3,both,1,1,1094,1
5,3,1,74,3,both,2,2,1478,1
5,3,1,75,3,both,2,2,855.9999999999709,1
5,3,1,76,3,both,1,1,939,1
5,3,1,77,3,both,2,2,1141,1
5,3,1,78,3,both,2,2,877,1
5,3,1,79,3,both,1,2,842,0
5,3,1,80,3,both,1,1,1058,1
5,3,2,2,2,tie,1,1,1161,1
5,3,2,3,2,tie,1,1,1433.999999999999,1
5,3,2,4,2,tie,2,2,1156,1
5,3,2,5,2,tie,2,2,1042,1
5,3,2,6,2,tie,2,1,1363,0
5,3,2,7,2,tie,1,1,941,1
5,3,2,8,2,tie,2,1,1144,0
5,3,2,9,2,tie,2,2,1091,1
5,3,2,10,2,tie,1,1,1485,1
5,3,2,11,4,none,2,2,1500,1
5,3,2,12,4,none,2,2,1227.9999999999964,1
5,3,2,13,4,none,1,1,1032,1
5,3,2,14,4,none,1,1,908,1
5,3,2,15,4,none,1,1,981,1
5,3,2,16,4,none,1,2,1017,0
5,3,2,17,4,none,2,1,782,0
5,3,2,18,4,none,2,1,830,0
5,3,2,19,4,none,1,1,893,1
5,3,2,20,4,none,2,2,882,1
5,3,2,21,1,name,2,2,1308,1
5,3,2,22,1,name,1,1,758,1
5,3,2,23,1,name,1,1,945,1
5,3,2,24,1,name,1,2,1601,0
5,3,2,25,1,name,2,2,955,1
5,3,2,26,1,name,2,2,1096,1
5,3,2,27,1,name,1,1,880,1
5,3,2,28,1,name,1,1,2169,1
5,3,2,29,1,name,2,2,1191,1
5,3,2,30,1,name,2,2,1190,1
5,3,2,31,4,none,2,2,1167,1
5,3,2,32,4,none,1,1,1139,1
5,3,2,33,4,none,1,1,823,1
5,3,2,34,4,none,2,2,1001,1
5,3,2,35,4,none,2,1,1435,0
5,3,2,36,4,none,2,2,1142,1
5,3,2,37,4,none,1,1,1095,1
5,3,2,38,4,none,1,1,1078,1
5,3,2,39,4,none,2,2,1129,1
5,3,2,40,4,none,1,1,733,1
5,3,2,41,3,both,2,2,1048,1
5,3,2,42,3,both,1,1,1585,1
5,3,2,43,3,both,1,1,761,1
5,3,2,44,3,both,2,2,983,1
5,3,2,45,3,both,1,1,1106,1
5,3,2,46,3,both,2,2,910,1
5,3,2,47,3,both,1,1,733,1
5,3,2,48,3,both,1,1,1017,1
5,3,2,49,3,both,2,2,761.9999999999854,1
5,3,2,50,3,both,2,2,1079,1
5,3,2,52,1,name,2,2,931.9999999999709,1
5,3,2,53,1,name,1,2,1079,0
5,3,2,54,1,name,2,2,1034,1
5,3,2,55,1,name,2,2,780,1
5,3,2,56,1,name,2,2,1387,1
5,3,2,57,1,name,1,1,745,1
5,3,2,58,1,name,1,1,1110,1
5,3,2,59,1,name,1,1,1502,1
5,3,2,60,1,name,2,2,1665,1
5,3,2,61,3,both,1,1,955,1
5,3,2,62,3,both,1,1,863,1
5,3,2,63,3,both,2,2,781,1
5,3,2,64,3,both,2,2,722,1
5,3,2,65,3,both,2,2,668.9999999999709,1
5,3,2,66,3,both,1,1,1398,1
5,3,2,67,3,both,2,1,921,0
5,3,2,68,3,both,1,1,703,1
5,3,2,69,3,both,1,1,781,1
5,3,2,70,3,both,2,2,822,1
5,3,2,71,2,tie,1,1,720,1
5,3,2,72,2,tie,2,2,1192.999999999971,1
5,3,2,73,2,tie,2,2,982,1
5,3,2,74,2,tie,2,2,1381,1
5,3,2,75,2,tie,2,2,862,1
5,3,2,76,2,tie,1,1,797,1
5,3,2,77,2,tie,2,2,844.9999999999709,1
5,3,2,78,2,tie,1,2,1055,0
5,3,2,79,2,tie,1,1,814,1
5,3,2,80,2,tie,1,1,1159,1
5,4,1,1,3,both,1,1,1840,1
5,4,1,2,3,both,1,1,1210,1
5,4,1,3,3,both,2,2,1018.9999999999982,1
5,4,1,4,3,both,2,2,1287,1
5,4,1,5,3,both,1,1,1080,1
5,4,1,6,3,both,1,1,1048,1
5,4,1,7,3,both,2,2,865,1
5,4,1,8,3,both,1,1,954,1
5,4,1,9,3,both,2,2,1070,1
5,4,1,10,3,both,2,2,951,1
5,4,1,11,4,none,1,1,775,1
5,4,1,12,4,none,1,2,696,0
5,4,1,13,4,none,2,2,821,1
5,4,1,14,4,none,2,2,861,1
5,4,1,15,4,none,2,2,749,1
5,4,1,16,4,none,1,2,1293,0
5,4,1,17,4,none,1,1,602,1
5,4,1,18,4,none,2,2,1257,1
5,4,1,19,4,none,2,2,811.9999999999927,1
5,4,1,20,4,none,1,1,1211,1
5,4,1,21,2,tie,1,1,758,1
5,4,1,22,2,tie,1,2,1504.9999999999927,0
5,4,1,23,2,tie,1,1,809,1
5,4,1,24,2,tie,2,2,1032.9999999999854,1
5,4,1,25,2,tie,2,2,1016,1
5,4,1,26,2,tie,2,2,1067,1
5,4,1,27,2,tie,2,2,835,1
5,4,1,28,2,tie,1,1,1091,1
5,4,1,29,2,tie,1,1,845,1
5,4,1,30,2,tie,2,2,1406,1
5,4,1,31,1,name,2,2,828,1
5,4,1,32,1,name,2,2,1222,1
5,4,1,33,1,name,1,1,640,1
5,4,1,34,1,name,1,1,1201,1
5,4,1,35,1,name,1,1,1003,1
5,4,1,36,1,name,2,2,1017.9999999999854,1
5,4,1,37,1,name,1,2,1653.9999999999854,0
5,4,1,38,1,name,2,2,893,1
5,4,1,39,1,name,1,1,804,1
5,4,1,40,1,name,2,2,1065.9999999999854,1
5,4,1,41,3,both,2,2,967,1
5,4,1,42,3,both,1,1,1363,1
5,4,1,43,3,both,2,2,930,1
5,4,1,44,3,both,1,1,1353,1
5,4,1,45,3,both,2,2,1280.9999999999854,1
5,4,1,46,3,both,2,2,1416.9999999999854,1
5,4,1,47,3,both,1,1,1408,1
5,4,1,48,3,both,1,1,822,1
5,4,1,49,3,both,1,1,882,1
5,4,1,50,3,both,2,2,841,1
5,4,1,51,1,name,1,1,1253,1
5,4,1,52,1,name,1,1,1021.9999999999709,1
5,4,1,53,1,name,1,1,619,1
5,4,1,54,1,name,2,2,988.9999999999709,1
5,4,1,55,1,name,2,2,1001,1
5,4,1,56,1,name,2,2,821,1
5,4,1,57,1,name,1,1,757.9999999999709,1
5,4,1,58,1,name,2,2,1526,1
5,4,1,59,1,name,1,1,736,1
5,4,1,60,1,name,2,2,800,1
5,4,1,61,4,none,1,2,918,0
5,4,1,62,4,none,1,1,646,1
5,4,1,63,4,none,2,2,956,1
5,4,1,64,4,none,2,2,1029,1
5,4,1,65,4,none,2,2,707,1
5,4,1,66,4,none,2,2,685,1
5,4,1,67,4,none,1,1,917,1
5,4,1,68,4,none,1,1,1215,1
5,4,1,69,4,none,1,1,1144,1
5,4,1,70,4,none,2,2,605,1
5,4,1,71,2,tie,2,2,827,1
5,4,1,72,2,tie,2,2,1086,1
5,4,1,73,2,tie,1,1,832.9999999999709,1
5,4,1,74,2,tie,1,1,782,1
5,4,1,75,2,tie,1,1,1082,1
5,4,1,76,2,tie,2,2,1442,1
5,4,1,77,2,tie,1,1,738,1
5,4,1,78,2,tie,1,1,1458,1
5,4,1,79,2,tie,2,1,695,0
5,4,1,80,2,tie,2,2,843,1
5,4,2,1,1,name,2,2,1143,1
5,4,2,2,1,name,1,1,704,1
5,4,2,3,1,name,2,2,1088,1
5,4,2,4,1,name,1,1,713,1
5,4,2,5,1,name,2,1,1081,0
5,4,2,6,1,name,1,1,852,1
5,4,2,7,1,name,2,2,944,1
5,4,2,8,1,name,1,1,601,1
5,4,2,9,1,name,1,1,1763,1
5,4,2,10,1,name,2,2,805,1
5,4,2,11,3,both,1,1,1122.9999999999964,1
5,4,2,12,3,both,2,2,698,1
5,4,2,13,3,both,1,1,898,1
5,4,2,14,3,both,2,2,1136,1
5,4,2,15,3,both,1,1,1060,1
5,4,2,16,3,both,1,1,1248,1
5,4,2,17,3,both,1,1,743.9999999999927,1
5,4,2,18,3,both,2,2,746,1
5,4,2,19,3,both,2,2,1217,1
5,4,2,20,3,both,2,2,900.9999999999927,1
5,4,2,21,4,none,1,1,1361,1
5,4,2,22,4,none,1,1,882,1
5,4,2,23,4,none,1,1,1875,1
5,4,2,24,4,none,2,1,1592,0
5,4,2,25,4,none,2,2,1310,1
5,4,2,26,4,none,2,2,1045,1
5,4,2,27,4,none,2,2,838,1
5,4,2,28,4,none,2,2,645,1
5,4,2,29,4,none,1,1,778,1
5,4,2,30,4,none,1,2,1572,0
5,4,2,31,2,tie,1,1,1417,1
5,4,2,32,2,tie,1,2,1134,0
5,4,2,33,2,tie,2,2,716,1
5,4,2,34,2,tie,2,1,657,0
5,4,2,35,2,tie,1,1,1159.9999999999854,1
5,4,2,36,2,tie,2,2,965,1
5,4,2,37,2,tie,1,1,1088,1
5,4,2,38,2,tie,2,1,996,0
5,4,2,39,2,tie,2,2,984.9999999999854,1
5,4,2,40,2,tie,1,1,862,1
5,4,2,41,3,both,1,1,715,1
5,4,2,42,3,both,2,2,826.9999999999854,1
5,4,2,43,3,both,2,2,785,1
5,4,2,44,3,both,1,2,630,0
5,4,2,45,3,both,1,1,774,1
5,4,2,46,3,both,2,2,841,1
5,4,2,47,3,both,2,2,589,1
5,4,2,48,3,both,1,1,1022.9999999999854,1
5,4,2,49,3,both,2,2,913,1
5,4,2,50,3,both,1,1,1344,1
5,4,2,51,1,name,1,1,804,1
5,4,2,52,1,name,1,2,1349,0
5,4,2,53,1,name,1,1,705,1
5,4,2,54,1,name,2,2,790,1
5,4,2,55,1,name,1,1,627,1
5,4,2,56,1,name,1,1,1018,1
5,4,2,57,1,name,2,2,1315.999999999971,1
5,4,2,58,1,name,2,1,700,0
5,4,2,59,1,name,2,2,874,1
5,4,2,60,1,name,2,2,1037,1
5,4,2,61,2,tie,2,2,1041,1
5,4,2,62,2,tie,1,1,1221,1
5,4,2,63,2,tie,2,2,1071,1
5,4,2,64,2,tie,2,2,951,1
5,4,2,65,2,tie,1,1,657,1
5,4,2,66,2,tie,1,1,685,1
5,4,2,67,2,tie,2,1,1237,0
5,4,2,68,2,tie,1,2,746,0
5,4,2,69,2,tie,1,1,803,1
5,4,2,70,2,tie,2,2,824,1
5,4,2,71,4,none,2,2,794,1
5,4,2,72,4,none,2,2,799,1
5,4,2,73,4,none,2,2,705,1
5,4,2,74,4,none,1,2,779,0
5,4,2,75,4,none,1,1,578,1
5,4,2,76,4,none,2,2,574,1
5,4,2,77,4,none,1,1,996,1
5,4,2,78,4,none,1,2,790,0
5,4,2,79,4,none,1,1,801,1
5,4,2,80,4,none,2,2,747,1
5,5,1,1,1,name,2,2,1407,1
5,5,1,2,1,name,1,2,2031,0
5,5,1,3,1,name,1,1,1047,1
5,5,1,4,1,name,2,2,897,1
5,5,1,5,1,name,2,2,841,1
5,5,1,6,1,name,1,1,1655,1
5,5,1,7,1,name,1,1,993,1
5,5,1,8,1,name,2,2,825,1
5,5,1,9,1,name,2,2,1142,1
5,5,1,10,1,name,1,1,921,1
5,5,1,11,3,both,2,2,1038,1
5,5,1,12,3,both,2,2,909,1
5,5,1,13,3,both,1,2,1180,0
5,5,1,14,3,both,1,1,774,1
5,5,1,15,3,both,2,2,795.9999999999927,1
5,5,1,16,3,both,2,2,741,1
5,5,1,17,3,both,1,2,1488,0
5,5,1,18,3,both,1,1,800,1
5,5,1,19,3,both,1,1,910,1
5,5,1,20,3,both,2,2,908,1
5,5,1,21,4,none,1,2,1855,0
5,5,1,22,4,none,2,2,979,1
5,5,1,23,4,none,1,1,1409,1
5,5,1,24,4,none,1,1,1577,1
5,5,1,25,4,none,2,2,1115,1
5,5,1,26,4,none,2,2,1872,1
5,5,1,27,4,none,1,2,1199,0
5,5,1,28,4,none,1,1,808,1
5,5,1,29,4,none,2,2,1153.9999999999854,1
5,5,1,30,4,none,2,2,1076,1
5,5,1,31,1,name,1,1,835.9999999999854,1
5,5,1,32,1,name,2,2,1354,1
5,5,1,33,1,name,1,1,922.9999999999854,1
5,5,1,34,1,name,1,1,1003,1
5,5,1,35,1,name,2,2,927,1
5,5,1,36,1,name,2,2,1043,1
5,5,1,37,1,name,1,2,1343,0
5,5,1,38,1,name,2,2,1209,1
5,5,1,39,1,name,1,1,739,1
5,5,1,40,1,name,2,2,857.9999999999854,1
5,5,1,41,4,none,1,1,1072,1
5,5,1,42,4,none,2,2,846,1
5,5,1,43,4,none,1,1,1434,1
5,5,1,44,4,none,2,2,686,1
5,5,1,45,4,none,2,2,1272,1
5,5,1,46,4,none,1,1,1359,1
5,5,1,47,4,none,1,1,1385,1
5,5,1,48,4,none,2,2,928,1
5,5,1,49,4,none,2,2,911,1
5,5,1,50,4,none,1,1,1567,1
5,5,1,51,2,tie,1,1,1322,1
5,5,1,52,2,tie,1,1,975,1
5,5,1,53,2,tie,1,1,1340,1
5,5,1,54,2,tie,2,2,922,1
5,5,1,55,2,tie,1,1,1453,1
5,5,1,56,2,tie,1,1,934,1
5,5,1,57,2,tie,2,2,818.9999999999709,1
5,5,1,58,2,tie,2,2,921,1
5,5,1,59,2,tie,2,2,895.9999999999709,1
5,5,1,60,2,tie,2,2,1087.999999999971,1
5,5,1,61,3,both,2,2,890.9999999999709,1
